timestamp,accX,accY,accZ
0,-2.0,-9.4,1.0
16,-2.0,-9.4,1.1
32,-2.0,-9.4,1.1
48,-2.0,-9.3,1.1
64,-2.1,-9.200000000000001,1.0
80,-2.1,-9.200000000000001,1.1
96,-2.1,-9.3,1.1
112,-2.0,-9.4,1.1
128,-1.9000000000000001,-9.4,1.1
144,-1.8,-9.4,1.1
160,-1.9000000000000001,-9.3,1.0
176,-1.9000000000000001,-9.4,1.0
192,-1.9000000000000001,-9.4,1.1
208,-1.9000000000000001,-9.4,1.1
224,-1.8,-9.5,0.9
240,-1.6,-9.5,0.9
256,-1.4000000000000001,-9.600000000000001,0.8
272,-1.2000000000000002,-9.600000000000001,0.9
288,-1.3,-9.5,1.0
304,-1.6,-9.4,1.0
320,-1.7000000000000002,-9.3,0.9
336,-1.7000000000000002,-9.3,1.1
352,-1.8,-9.4,1.3
368,-1.7000000000000002,-9.4,1.4000000000000001
384,-1.5,-9.4,1.5
400,-1.4000000000000001,-9.4,1.6
416,-1.4000000000000001,-9.5,1.6
432,-1.4000000000000001,-9.4,1.6
448,-1.4000000000000001,-9.3,1.8
464,-1.6,-9.4,1.9000000000000001
480,-2.2,-9.4,1.7000000000000002
496,-2.5,-9.0,1.4000000000000001
512,-2.2,-8.9,1.4000000000000001
528,-1.8,-9.1,1.1
544,-1.3,-9.5,1.1
560,-1.0,-9.8,1.1
576,-0.8,-9.9,1.2000000000000002
592,-0.9,-9.700000000000001,1.3
608,-0.9,-9.700000000000001,1.3
624,-1.1,-9.4,1.6
640,-1.1,-9.4,1.6
656,-2.2,-9.200000000000001,1.6
672,-2.7,-9.1,1.2000000000000002
688,-3.0,-9.0,0.9
704,-3.0,-9.0,0.9
720,-3.2,-9.0,1.1
736,-3.1,-9.0,1.2000000000000002
752,-3.1,-9.200000000000001,1.4000000000000001
768,-2.8000000000000003,-9.4,1.5
784,-2.6,-9.3,1.5
800,-2.2,-9.1,1.4000000000000001
816,-1.8,-9.0,1.3
832,-1.5,-9.200000000000001,1.2000000000000002
848,-1.4000000000000001,-9.5,1.2000000000000002
864,-1.6,-9.700000000000001,1.0
880,-1.6,-9.8,0.9
896,-1.7000000000000002,-9.700000000000001,0.7000000000000001
912,-1.7000000000000002,-9.700000000000001,0.7000000000000001
928,-1.6,-9.700000000000001,0.7000000000000001
944,-1.4000000000000001,-9.700000000000001,0.9
960,-1.1,-9.9,1.1
976,-1.3,-9.9,1.6
992,-2.0,-9.200000000000001,1.9000000000000001
1008,-2.0,-9.200000000000001,1.9000000000000001
1024,-2.4000000000000004,-8.700000000000001,1.9000000000000001
1040,-2.2,-8.8,2.4000000000000004
1056,-2.0,-8.9,2.7
1072,-1.8,-9.1,2.6
1088,-1.9000000000000001,-9.200000000000001,2.4000000000000004
1104,-2.0,-9.3,2.2
1120,-1.8,-9.3,1.9000000000000001
1136,-1.4000000000000001,-9.200000000000001,1.8
1152,-0.9,-9.1,1.9000000000000001
1168,-0.5,-8.700000000000001,2.1
1184,-0.30000000000000004,-8.3,2.3000000000000003
1200,-0.30000000000000004,-8.700000000000001,2.5
1216,-0.4,-9.3,2.6
1232,-0.6000000000000001,-9.9,2.4000000000000004
1248,-1.0,-10.5,2.3000000000000003
1264,-1.6,-10.8,2.2
1280,-1.8,-10.700000000000001,2.1
1296,-1.9000000000000001,-10.3,2.2
1312,-1.7000000000000002,-9.9,2.3000000000000003
1328,-1.6,-9.5,2.4000000000000004
1344,-1.7000000000000002,-9.200000000000001,2.6
1360,-2.0,-9.200000000000001,2.8000000000000003
1376,-2.1,-9.3,2.4000000000000004
1392,-2.0,-9.3,2.0
1408,-2.0,-9.3,2.0
1424,-1.9000000000000001,-9.0,2.0
1440,-1.9000000000000001,-8.3,2.1
1456,-1.9000000000000001,-7.6000000000000005,2.3000000000000003
1472,-1.9000000000000001,-7.6000000000000005,2.2
1488,-1.9000000000000001,-7.6000000000000005,2.2
1504,-1.4000000000000001,-8.5,2.5
1520,-2.3000000000000003,-7.9,2.4000000000000004
1536,-3.0,-9.1,2.7
1552,-3.4000000000000004,-10.4,2.6
1568,-3.6,-10.0,2.4000000000000004
1584,-3.4000000000000004,-9.5,2.1
1600,-3.1,-9.200000000000001,2.1
1616,-2.9000000000000004,-9.0,2.2
1632,-2.6,-8.9,2.3000000000000003
1648,-2.5,-9.0,2.4000000000000004
1664,-2.6,-9.1,2.6
1680,-2.9000000000000004,-9.1,2.6
1696,-3.2,-8.9,2.7
1712,-3.5,-8.8,2.9000000000000004
1728,-3.6,-8.6,3.0
1744,-3.4000000000000004,-8.4,3.2
1760,-3.1,-8.4,3.3000000000000003
1776,-2.8000000000000003,-8.6,3.5
1792,-2.6,-8.8,3.4000000000000004
1808,-2.6,-8.8,3.4000000000000004
1824,-2.6,-8.9,3.3000000000000003
1840,-2.6,-8.9,3.2
1856,-2.8000000000000003,-8.8,3.0
1872,-2.9000000000000004,-8.6,3.0
1888,-2.9000000000000004,-8.4,2.9000000000000004
1904,-2.9000000000000004,-8.200000000000001,3.1
1920,-2.9000000000000004,-7.9,3.3000000000000003
1936,-2.8000000000000003,-8.0,3.5
1952,-2.8000000000000003,-8.0,3.5
1968,-2.8000000000000003,-8.0,3.5
1984,-2.8000000000000003,-8.0,3.7
2000,-3.0,-8.0,3.7
2016,-3.1,-8.1,3.5
2032,-3.2,-8.1,3.4000000000000004
2048,-3.2,-8.0,3.4000000000000004
2064,-3.1,-7.9,3.5
2080,-3.1,-7.800000000000001,3.7
2096,-3.2,-7.9,3.8000000000000003
2112,-3.2,-8.0,3.8000000000000003
2128,-3.3000000000000003,-8.200000000000001,3.8000000000000003
2144,-3.3000000000000003,-8.4,3.7
2160,-3.5,-8.4,3.7
2176,-3.7,-8.4,3.9000000000000004
2192,-3.9000000000000004,-8.5,4.0
2208,-3.9000000000000004,-8.5,4.0
2224,-3.7,-8.8,3.8000000000000003
2240,-3.5,-8.9,3.7
2256,-3.5,-8.5,3.6
2272,-3.5,-8.200000000000001,3.3000000000000003
2288,-3.4000000000000004,-8.5,2.9000000000000004
2304,-3.2,-9.0,2.6
2320,-3.1,-9.8,2.5
2336,-3.2,-10.9,3.1
2352,-2.7,-11.100000000000001,3.3000000000000003
2368,-2.6,-9.8,2.9000000000000004
2384,-3.1,-8.5,3.4000000000000004
2400,-3.2,-7.9,4.2
2416,-2.6,-7.7,4.0
2432,-2.0,-7.9,3.4000000000000004
2448,-1.7000000000000002,-8.0,3.0
2464,-2.1,-8.4,2.3000000000000003
2480,-2.5,-9.0,2.2
2496,-2.4000000000000004,-9.1,2.8000000000000003
2512,-2.1,-8.8,3.3000000000000003
2528,-1.9000000000000001,-8.4,3.1
2544,-1.9000000000000001,-8.4,2.6
2560,-2.1,-8.6,2.4000000000000004
2576,-2.1,-8.9,2.5
2592,-1.7000000000000002,-9.1,2.6
2608,-1.7000000000000002,-9.1,2.6
2624,-1.1,-9.1,2.5
2640,-0.9,-9.200000000000001,2.2
2656,-1.0,-9.1,2.2
2672,-1.1,-9.0,2.3000000000000003
2688,-1.2000000000000002,-8.9,2.3000000000000003
2704,-1.2000000000000002,-8.9,2.2
2720,-0.9,-9.1,2.3000000000000003
2736,-0.5,-9.5,2.3000000000000003
2752,-0.5,-9.8,2.5
2768,-0.6000000000000001,-9.700000000000001,2.7
2784,-0.7000000000000001,-9.4,2.8000000000000003
2800,-0.7000000000000001,-9.1,2.9000000000000004
2816,-0.6000000000000001,-8.8,3.2
2832,-0.7000000000000001,-8.9,3.4000000000000004
2848,-1.0,-9.200000000000001,3.3000000000000003
2864,-1.1,-9.3,3.1
2880,-1.3,-9.200000000000001,2.9000000000000004
2896,-1.5,-9.1,2.7
2912,-1.5,-9.0,2.5
2928,-1.5,-9.1,2.4000000000000004
2944,-1.3,-9.3,2.3000000000000003
2960,-1.2000000000000002,-9.4,2.4000000000000004
2976,-1.1,-9.4,2.5
2992,-1.1,-9.200000000000001,2.6
3008,-1.1,-9.200000000000001,2.6
3024,-1.2000000000000002,-9.1,2.6
3040,-1.2000000000000002,-9.1,2.7
3056,-1.3,-9.1,2.7
3072,-1.3,-9.1,2.7
3088,-1.3,-9.1,2.7
3104,-1.4000000000000001,-9.1,2.8000000000000003
3120,-1.4000000000000001,-9.0,2.8000000000000003
3136,-1.4000000000000001,-8.9,2.7
3152,-1.4000000000000001,-8.9,2.8000000000000003
3168,-1.4000000000000001,-9.0,2.9000000000000004
3184,-1.3,-9.0,2.8000000000000003
3200,-1.3,-9.0,2.9000000000000004
3216,-1.4000000000000001,-9.1,2.9000000000000004
3232,-1.4000000000000001,-9.200000000000001,2.8000000000000003
3248,-1.3,-9.200000000000001,2.8000000000000003
3264,-1.2000000000000002,-9.200000000000001,2.8000000000000003
3280,-1.0,-9.3,2.8000000000000003
3296,-1.0,-9.3,3.0
3312,-1.0,-9.3,2.9000000000000004
3328,-1.0,-9.200000000000001,2.9000000000000004
3344,-1.1,-9.0,3.0
3360,-1.2000000000000002,-8.9,2.9000000000000004
3376,-1.0,-8.9,2.8000000000000003
3392,-1.0,-8.9,2.8000000000000003
3408,-1.0,-8.9,2.8000000000000003
3424,-0.5,-9.3,2.7
3440,-0.5,-9.3,2.8000000000000003
3456,-0.5,-9.3,2.8000000000000003
3472,-0.7000000000000001,-9.4,2.7
3488,-0.8,-9.600000000000001,2.4000000000000004
3504,-0.7000000000000001,-9.5,2.2
3520,-0.2,-9.200000000000001,2.1
3536,0.0,-9.3,1.7000000000000002
3552,-0.2,-9.700000000000001,1.2000000000000002
3568,-0.1,-10.100000000000001,0.8
3584,0.2,-10.3,0.7000000000000001
3600,0.0,-10.3,0.8
3616,-0.5,-10.200000000000001,0.7000000000000001
3632,-0.7000000000000001,-10.100000000000001,0.5
3648,-1.0,-10.200000000000001,0.4
3664,-1.2000000000000002,-10.200000000000001,0.4
3680,-1.0,-10.100000000000001,0.5
3696,-0.9,-9.9,0.6000000000000001
3712,-1.0,-9.700000000000001,0.7000000000000001
3728,-1.0,-9.600000000000001,0.5
3744,-0.8,-9.600000000000001,0.4
3760,-0.6000000000000001,-9.600000000000001,0.5
3776,-0.6000000000000001,-9.600000000000001,0.6000000000000001
3792,-0.6000000000000001,-9.700000000000001,0.7000000000000001
3808,-0.6000000000000001,-9.700000000000001,0.7000000000000001
3824,-0.7000000000000001,-9.9,0.8
3840,-0.9,-10.0,0.7000000000000001
3856,-1.0,-10.0,0.2
3872,-0.7000000000000001,-10.200000000000001,-0.1
3888,-0.4,-10.3,0.0
3904,-0.4,-10.100000000000001,0.2
3920,-0.7000000000000001,-10.100000000000001,0.0
3936,-0.5,-10.5,-0.30000000000000004
3952,0.0,-10.700000000000001,-0.6000000000000001
3968,0.7000000000000001,-10.3,-0.4
3984,0.7000000000000001,-9.3,0.5
4000,0.0,-8.8,0.30000000000000004
4016,-0.7000000000000001,-8.8,0.2
4032,-0.8,-9.200000000000001,0.0
4048,-0.8,-9.3,0.1
4064,-1.3,-9.600000000000001,-0.2
4080,-1.8,-9.8,-0.5
4096,-2.0,-9.8,-0.8
4112,-1.8,-10.100000000000001,-1.0
4128,-1.3,-10.5,-1.2000000000000002
4144,-0.7000000000000001,-10.600000000000001,-1.4000000000000001
4160,-0.4,-10.600000000000001,-1.6
4176,-0.4,-10.700000000000001,-1.7000000000000002
4192,-0.7000000000000001,-10.8,-1.9000000000000001
4208,-0.7000000000000001,-10.8,-1.9000000000000001
4224,-0.7000000000000001,-10.8,-2.0
4240,-0.4,-10.600000000000001,-1.9000000000000001
4256,-0.4,-10.200000000000001,-1.3
4272,-0.6000000000000001,-9.600000000000001,-0.9
4288,-0.6000000000000001,-9.3,-1.2000000000000002
4304,-0.2,-9.4,-1.5
4320,0.0,-9.600000000000001,-1.8
4336,-0.7000000000000001,-9.600000000000001,-1.7000000000000002
4352,-1.6,-9.700000000000001,-1.9000000000000001
4368,-2.2,-9.700000000000001,-2.0
4384,-2.2,-9.700000000000001,-2.0
4400,-1.6,-9.600000000000001,-2.5
4416,-0.9,-9.4,-2.2
4432,-0.7000000000000001,-9.1,-1.5
4448,-1.4000000000000001,-9.0,-0.8
4464,-2.8000000000000003,-9.1,-0.5
4480,-3.6,-8.9,-0.4
4496,-3.1,-7.7,0.6000000000000001
4512,-1.8,-5.7,2.1
4528,-0.6000000000000001,-3.6,2.7
4544,0.5,-2.0,2.9000000000000004
4560,1.6,-0.5,3.2
4576,1.7000000000000002,1.1,3.8000000000000003
4592,1.1,2.2,2.0
4608,1.1,2.2,2.0
4624,1.0,2.9000000000000004,0.1
4640,0.2,2.3000000000000003,-1.9000000000000001
4656,-0.6000000000000001,0.7000000000000001,-3.3000000000000003
4672,-1.9000000000000001,-0.7000000000000001,-4.2
4688,-4.3,-1.5,-6.300000000000001
4704,-6.7,-2.0,-10.100000000000001
4720,-9.5,-3.8000000000000003,-11.8
4736,-12.700000000000001,-5.300000000000001,-13.700000000000001
4752,-12.700000000000001,-4.9,-15.200000000000001
4768,-11.100000000000001,-4.800000000000001,-12.600000000000001
4784,-13.8,-1.1,-11.5
4800,-18.1,8.700000000000001,-14.600000000000001
4816,-8.9,17.3,-18.7
4832,-3.0,19.6,-17.5
4848,-4.4,19.3,-16.400000000000002
4864,-6.9,17.900000000000002,-18.8
4880,-8.8,16.900000000000002,-12.4
4896,-11.3,18.900000000000002,-7.2
4912,-11.600000000000001,19.700000000000003,-6.9
4928,-6.4,16.6,-7.7
4944,-0.9,11.9,-5.800000000000001
4960,0.1,9.5,-4.9
4976,-1.9000000000000001,6.9,-4.0
4992,-3.2,5.300000000000001,-2.9000000000000004
5008,-3.2,5.300000000000001,-2.9000000000000004
5024,-3.5,2.9000000000000004,-0.9
5040,-3.9000000000000004,0.7000000000000001,-0.9
5056,-1.5,0.2,-2.1
5072,1.6,0.7000000000000001,-2.4000000000000004
5088,2.8000000000000003,1.2000000000000002,-4.0
5104,1.9000000000000001,1.6,-5.2
5120,0.30000000000000004,1.4000000000000001,-5.800000000000001
5136,-1.1,1.2000000000000002,-6.5
5152,-1.7000000000000002,1.8,-7.7
5168,-1.6,3.8000000000000003,-8.6
5184,-1.3,6.2,-9.200000000000001
5200,-1.6,8.3,-9.3
5216,-2.1,8.700000000000001,-8.4
5232,-2.5,11.200000000000001,-8.200000000000001
5248,-3.8000000000000003,10.700000000000001,-7.2
5264,-4.6000000000000005,10.600000000000001,-5.7
5280,-5.4,10.700000000000001,-5.7
5296,-5.6000000000000005,9.200000000000001,-5.9
5312,-5.9,7.800000000000001,-5.4
5328,-6.5,6.800000000000001,-4.1000000000000005
5344,-6.9,5.1000000000000005,-3.4000000000000004
5360,-6.6000000000000005,5.300000000000001,-3.1
5376,-7.2,5.4,-3.0
5392,-7.1000000000000005,4.9,-3.0
5408,-7.1000000000000005,4.9,-3.0
5424,-7.2,4.6000000000000005,-3.4000000000000004
5440,-7.7,3.8000000000000003,-3.7
5456,-8.3,3.7,-2.9000000000000004
5472,-10.100000000000001,3.5,-3.4000000000000004
5488,-9.9,3.4000000000000004,-3.8000000000000003
5504,-9.1,2.2,-3.7
5520,-6.0,2.4000000000000004,-3.1
5536,-5.0,1.9000000000000001,-2.4000000000000004
5552,-5.6000000000000005,1.7000000000000002,-1.7000000000000002
5568,-5.800000000000001,1.5,-1.0
5584,-7.800000000000001,0.1,0.2
5600,-9.0,-0.8,0.2
5616,-9.8,-1.3,0.0
5632,-11.0,-2.0,0.2
5648,-11.100000000000001,-2.3000000000000003,0.30000000000000004
5664,-11.100000000000001,-2.2,0.2
5680,-14.200000000000001,-3.8000000000000003,2.6
5696,-16.0,-4.2,3.5
5712,-17.3,-6.2,0.6000000000000001
5728,-16.900000000000002,-5.800000000000001,-3.5
5744,-13.200000000000001,-1.5,1.3
5760,-10.3,0.7000000000000001,3.2
5776,-9.4,0.8,6.6000000000000005
5792,-8.4,1.6,7.2
5808,-8.4,1.6,7.2
5824,-8.0,1.5,4.9
5840,-7.5,1.3,1.1
5856,-7.5,0.30000000000000004,-2.5
5872,-9.5,-1.4000000000000001,-4.1000000000000005
5888,-11.0,-2.3000000000000003,-2.0
5904,-9.600000000000001,-1.1,1.3
5920,-8.0,1.1,3.6
5936,-7.6000000000000005,2.0,4.4
5952,-8.3,1.2000000000000002,3.4000000000000004
5968,-9.200000000000001,0.2,2.0
5984,-10.200000000000001,-0.2,1.3
6000,-11.0,-0.6000000000000001,1.0
6016,-10.9,-0.9,1.2000000000000002
6032,-9.9,-0.8,1.1
6048,-8.9,-0.7000000000000001,1.2000000000000002
6064,-8.200000000000001,-0.5,1.6
6080,-8.200000000000001,-0.6000000000000001,1.6
6096,-8.5,-0.8,1.9000000000000001
6112,-9.0,-1.0,2.3000000000000003
6128,-9.600000000000001,-1.1,2.7
6144,-9.8,-1.0,3.5
6160,-9.5,-0.9,4.3
6176,-9.3,-1.0,4.7
6192,-9.3,-1.0,5.0
6208,-9.3,-1.0,5.0
6224,-9.200000000000001,-1.0,5.0
6240,-8.9,-0.9,4.800000000000001
6256,-8.6,-0.7000000000000001,4.800000000000001
6272,-8.1,-0.5,4.800000000000001
6288,-7.9,-0.4,5.0
6304,-8.0,-0.4,5.2
6320,-8.5,-0.6000000000000001,5.4
6336,-9.0,-0.9,5.300000000000001
6352,-9.1,-0.8,5.4
6368,-8.700000000000001,-0.8,5.5
6384,-8.5,-0.9,5.4
6400,-8.5,-0.9,5.5
6416,-8.6,-1.0,5.4
6432,-8.8,-0.9,5.4
6448,-8.8,-0.8,5.300000000000001
6464,-8.9,-0.8,5.4
6480,-9.1,-1.0,5.6000000000000005
6496,-9.200000000000001,-1.1,5.800000000000001
6512,-9.600000000000001,-0.7000000000000001,6.0
6528,-10.100000000000001,-0.5,6.1000000000000005
6544,-10.100000000000001,-0.2,5.9
6560,-9.5,-0.2,5.6000000000000005
6576,-9.1,-0.2,5.5
6592,-9.4,-0.4,5.5
6608,-9.4,-0.4,5.5
6624,-10.0,-0.4,5.800000000000001
6640,-10.4,0.0,6.300000000000001
6656,-10.4,0.9,5.9
6672,-10.100000000000001,1.6,5.5
6688,-9.9,1.7000000000000002,5.2
6704,-8.700000000000001,1.9000000000000001,5.0
6720,-6.800000000000001,2.6,4.7
6736,-6.1000000000000005,2.9000000000000004,4.5
6752,-6.7,2.5,4.1000000000000005
6768,-7.0,2.8000000000000003,3.5
6784,-7.9,2.4000000000000004,2.9000000000000004
6800,-9.200000000000001,1.0,2.0
6816,-8.6,1.1,0.8
6832,-8.200000000000001,1.7000000000000002,0.0
6848,-9.200000000000001,1.5,-0.8
6864,-10.100000000000001,1.5,-1.3
6880,-9.700000000000001,1.6,-1.8
6896,-8.9,1.9000000000000001,-2.0
6912,-8.3,1.8,-2.0
6928,-8.1,1.7000000000000002,-1.8
6944,-8.3,1.7000000000000002,-1.6
6960,-8.4,1.9000000000000001,-1.6
6976,-8.8,2.0,-2.0
6992,-9.3,2.0,-2.4000000000000004
7008,-9.3,2.0,-2.4000000000000004
7024,-10.100000000000001,2.1,-3.0
7040,-10.4,2.2,-3.2
7056,-10.4,2.2,-3.0
7072,-10.200000000000001,2.3000000000000003,-3.2
7088,-9.8,2.5,-3.1
7104,-9.1,2.6,-2.9000000000000004
7120,-8.6,1.7000000000000002,-3.4000000000000004
7136,-8.700000000000001,0.6000000000000001,-3.6
7152,-8.8,0.5,-3.6
7168,-8.5,0.7000000000000001,-3.9000000000000004
7184,-8.700000000000001,0.8,-4.0
7200,-8.9,0.9,-4.1000000000000005
7216,-8.6,0.9,-4.5
7232,-8.4,0.4,-4.7
7248,-7.800000000000001,0.4,-5.300000000000001
7264,-7.5,0.2,-6.0
7280,-7.5,0.0,-6.1000000000000005
7296,-7.2,0.2,-6.0
7312,-7.300000000000001,0.2,-6.1000000000000005
7328,-7.7,0.0,-6.1000000000000005
7344,-7.7,-0.2,-6.300000000000001
7360,-7.6000000000000005,-0.5,-6.6000000000000005
7376,-7.7,-0.7000000000000001,-6.7
7392,-7.6000000000000005,-0.8,-6.7
7408,-7.6000000000000005,-0.8,-6.7
7424,-7.800000000000001,-0.8,-6.7
7440,-7.5,-0.8,-6.300000000000001
7456,-7.0,-0.9,-6.5
7472,-6.7,-1.0,-6.800000000000001
7488,-7.2,-0.8,-7.1000000000000005
7504,-7.4,-1.1,-7.2
7520,-6.9,-1.9000000000000001,-7.2
7536,-6.2,-2.5,-7.1000000000000005
7552,-5.6000000000000005,-2.5,-7.1000000000000005
7568,-4.800000000000001,-2.4000000000000004,-7.300000000000001
7584,-4.1000000000000005,-2.2,-7.5
7600,-3.6,-2.3000000000000003,-7.5
7616,-3.4000000000000004,-2.7,-7.5
7632,-3.8000000000000003,-3.2,-7.6000000000000005
7648,-4.4,-3.6,-7.800000000000001
7664,-4.6000000000000005,-3.7,-7.9
7680,-4.7,-3.5,-7.9
7696,-4.800000000000001,-3.5,-7.7
7712,-4.6000000000000005,-3.3000000000000003,-7.9
7728,-4.800000000000001,-3.3000000000000003,-7.7
7744,-5.5,-3.4000000000000004,-7.300000000000001
7760,-6.300000000000001,-3.8000000000000003,-7.1000000000000005
7776,-6.5,-4.2,-7.1000000000000005
7792,-6.7,-4.5,-7.0
7808,-6.7,-4.5,-7.0
7824,-7.7,-4.4,-6.2
7840,-7.7,-4.4,-6.2
7856,-8.1,-4.6000000000000005,-6.2
7872,-8.3,-4.7,-6.2
7888,-8.0,-4.6000000000000005,-5.800000000000001
7904,-7.7,-4.2,-5.5
7920,-7.9,-3.8000000000000003,-5.2
7936,-7.9,-3.8000000000000003,-5.2
7952,-7.9,-3.1,-5.300000000000001
7968,-7.7,-3.0,-5.4
7984,-7.7,-3.0,-5.5
8000,-7.7,-3.2,-5.9
8016,-7.300000000000001,-3.2,-6.5
8032,-6.5,-2.9000000000000004,-6.9
8048,-5.9,-2.7,-6.800000000000001
8064,-6.2,-2.5,-6.1000000000000005
8080,-6.9,-2.8000000000000003,-6.7
8096,-6.6000000000000005,-3.3000000000000003,-7.7
8112,-5.800000000000001,-3.5,-8.5
8128,-5.5,-3.4000000000000004,-8.4
8144,-5.800000000000001,-3.7,-7.800000000000001
8160,-6.1000000000000005,-4.3,-7.300000000000001
8176,-6.2,-5.300000000000001,-7.2
8192,-6.300000000000001,-4.9,-7.2
8208,-6.300000000000001,-4.9,-7.2
8224,-6.300000000000001,-4.0,-7.300000000000001
8240,-5.800000000000001,-3.5,-7.2
8256,-5.5,-3.3000000000000003,-7.0
8272,-5.2,-3.2,-6.800000000000001
8288,-5.300000000000001,-3.0,-6.6000000000000005
8304,-5.800000000000001,-3.1,-6.5
8320,-6.300000000000001,-3.0,-6.2
8336,-6.5,-2.8000000000000003,-6.2
8352,-6.4,-2.3000000000000003,-6.1000000000000005
8368,-6.5,-1.8,-6.0
8384,-6.5,-1.3,-5.9
8400,-6.6000000000000005,-1.2000000000000002,-5.6000000000000005
8416,-7.1000000000000005,-1.4000000000000001,-5.7
8432,-7.5,-1.5,-5.800000000000001
8448,-7.5,-1.3,-5.7
8464,-7.300000000000001,-1.1,-5.7
8480,-7.4,-0.7000000000000001,-5.6000000000000005
8496,-7.9,-0.4,-5.4
8512,-8.3,-0.1,-5.4
8528,-7.9,0.1,-5.4
8544,-7.7,0.2,-5.0
8560,-7.6000000000000005,0.6000000000000001,-4.6000000000000005
8576,-7.9,1.2000000000000002,-4.4
8592,-8.3,1.6,-4.4
8608,-8.3,1.6,-4.4
8624,-8.6,1.9000000000000001,-4.2
8640,-9.0,1.8,-4.2
8656,-8.9,2.2,-4.1000000000000005
8672,-8.4,3.2,-3.2
8688,-8.8,3.8000000000000003,-2.5
8704,-9.5,4.0,-2.2
8720,-10.0,3.7,-1.9000000000000001
8736,-10.3,3.2,-1.5
8752,-9.700000000000001,2.5,-0.9
8768,-10.0,1.9000000000000001,-0.4
8784,-10.3,1.6,0.0
8800,-10.0,2.0,0.5
8816,-9.600000000000001,2.4000000000000004,0.6000000000000001
8832,-9.3,2.7,0.7000000000000001
8848,-9.200000000000001,2.1,0.9
8864,-9.5,1.6,1.2000000000000002
8880,-9.0,1.2000000000000002,1.3
8896,-8.200000000000001,1.6,1.7000000000000002
8912,-8.4,1.3,2.2
8928,-8.9,0.8,2.3000000000000003
8944,-9.0,0.30000000000000004,2.2
8960,-9.1,-0.2,2.0
8976,-8.700000000000001,-0.2,2.1
8992,-9.1,0.2,2.4000000000000004
9008,-9.1,0.2,2.4000000000000004
9024,-10.4,0.2,2.7
9040,-12.0,0.1,3.7
9056,-12.200000000000001,0.6000000000000001,5.4
9072,-11.100000000000001,0.8,6.7
9088,-10.0,0.9,7.6000000000000005
9104,-9.5,0.6000000000000001,7.1000000000000005
9120,-8.9,0.2,5.9
9136,-8.6,0.0,4.800000000000001
9152,-8.8,0.0,4.4
9168,-8.9,0.1,3.9000000000000004
9184,-8.6,0.1,3.3000000000000003
9200,-8.5,0.1,2.9000000000000004
9216,-8.700000000000001,0.0,3.1
9232,-8.8,0.0,3.7
9248,-8.700000000000001,0.1,4.4
9264,-8.4,0.2,4.7
9280,-8.200000000000001,0.2,4.9
9296,-8.4,0.30000000000000004,4.9
9312,-8.700000000000001,0.2,4.9
9328,-9.0,0.1,5.1000000000000005
9344,-9.3,0.0,5.5
9360,-9.4,-0.1,5.6000000000000005
9376,-9.3,-0.1,5.5
9392,-9.0,-0.2,5.4
9408,-9.0,-0.2,5.4
9424,-8.6,-0.1,5.300000000000001
9440,-8.5,0.0,5.2
9456,-8.3,-0.1,5.1000000000000005
9472,-8.0,-0.1,5.300000000000001
9488,-7.7,-0.4,5.2
9504,-7.6000000000000005,0.0,5.1000000000000005
9520,-7.5,0.1,4.9
9536,-7.5,0.2,4.800000000000001
9552,-7.7,0.2,5.0
9568,-8.0,0.2,5.0
9584,-8.4,0.1,4.9
9600,-8.6,-0.2,4.9
9616,-8.4,-0.5,5.2
9632,-8.3,-0.4,5.7
9648,-8.4,-0.2,5.800000000000001
9664,-8.200000000000001,-0.1,5.800000000000001
9680,-8.3,0.0,5.9
9696,-8.4,0.1,5.6000000000000005
9712,-7.800000000000001,0.0,5.7
9728,-7.7,0.1,5.9
9744,-7.800000000000001,0.1,5.6000000000000005
9760,-7.800000000000001,0.0,5.5
9776,-8.1,0.2,5.300000000000001
9792,-8.1,0.2,4.9
9808,-8.1,0.2,4.9
9824,-7.7,0.1,4.800000000000001
9840,-7.300000000000001,0.0,5.300000000000001
9856,-7.300000000000001,0.1,5.800000000000001
9872,-7.9,-0.1,6.0
9888,-8.700000000000001,-0.1,5.6000000000000005
9904,-9.200000000000001,-0.2,5.300000000000001
9920,-9.200000000000001,-0.30000000000000004,4.9
9936,-9.200000000000001,-0.30000000000000004,4.9
9952,-8.700000000000001,-0.30000000000000004,4.800000000000001
9968,-8.0,-0.30000000000000004,4.7
9984,-7.9,-0.30000000000000004,4.800000000000001
