timestamp,accX,accY,accZ
0,1.6,-9.200000000000001,-3.2
16,1.6,-9.1,-3.2
32,1.6,-9.1,-3.2
48,1.7000000000000002,-9.200000000000001,-3.1
64,1.6,-9.200000000000001,-2.8000000000000003
80,1.6,-9.200000000000001,-2.8000000000000003
96,1.6,-9.200000000000001,-2.8000000000000003
112,1.7000000000000002,-9.0,-2.8000000000000003
128,1.7000000000000002,-9.0,-2.8000000000000003
144,1.8,-8.700000000000001,-2.8000000000000003
160,1.8,-9.0,-2.9000000000000004
176,1.8,-9.0,-2.9000000000000004
192,1.7000000000000002,-9.0,-2.8000000000000003
208,1.7000000000000002,-9.1,-2.7
224,1.5,-9.3,-2.7
240,1.5,-9.3,-2.7
256,1.5,-9.3,-2.8000000000000003
272,1.5,-9.200000000000001,-2.7
288,1.5,-9.200000000000001,-2.7
304,1.4000000000000001,-9.3,-2.6
320,1.4000000000000001,-9.3,-2.8000000000000003
336,1.4000000000000001,-9.200000000000001,-2.7
352,1.4000000000000001,-9.200000000000001,-2.7
368,1.3,-9.200000000000001,-3.0
384,1.4000000000000001,-9.3,-3.0
400,1.6,-9.1,-2.9000000000000004
416,1.6,-9.1,-2.9000000000000004
432,1.9000000000000001,-8.9,-2.9000000000000004
448,1.8,-9.1,-3.1
464,1.8,-9.1,-3.1
480,1.0,-9.600000000000001,-3.0
496,1.3,-9.5,-3.1
512,1.4000000000000001,-9.3,-2.9000000000000004
528,1.4000000000000001,-9.3,-2.9000000000000004
544,1.4000000000000001,-9.3,-2.9000000000000004
560,1.3,-9.200000000000001,-2.8000000000000003
576,1.4000000000000001,-9.3,-2.7
592,1.4000000000000001,-9.3,-2.7
608,1.7000000000000002,-9.200000000000001,-2.7
624,2.4000000000000004,-8.8,-3.0
640,2.4000000000000004,-8.9,-3.1
656,2.4000000000000004,-8.9,-3.1
672,1.9000000000000001,-9.0,-2.8000000000000003
688,2.0,-9.0,-2.7
704,2.2,-8.9,-2.9000000000000004
720,2.2,-8.9,-2.9000000000000004
736,2.3000000000000003,-9.1,-2.9000000000000004
752,2.2,-9.1,-2.6
768,2.2,-9.1,-2.6
784,1.9000000000000001,-9.0,-2.6
800,1.8,-9.0,-3.3000000000000003
816,1.9000000000000001,-8.9,-3.4000000000000004
832,1.9000000000000001,-8.9,-3.4000000000000004
848,2.1,-8.8,-3.4000000000000004
864,2.3000000000000003,-8.8,-3.2
880,2.3000000000000003,-8.8,-3.2
896,2.4000000000000004,-8.9,-2.9000000000000004
912,2.5,-8.8,-2.8000000000000003
928,2.5,-8.8,-2.8000000000000003
944,2.6,-8.700000000000001,-2.9000000000000004
960,2.6,-8.700000000000001,-2.9000000000000004
976,2.5,-8.8,-3.0
992,2.4000000000000004,-8.700000000000001,-3.4000000000000004
1008,2.3000000000000003,-8.700000000000001,-3.7
1024,2.3000000000000003,-8.700000000000001,-3.7
1040,2.4000000000000004,-9.0,-3.1
1056,2.4000000000000004,-9.1,-3.1
1072,2.4000000000000004,-9.1,-3.1
1088,2.3000000000000003,-9.1,-3.0
1104,2.5,-8.700000000000001,-3.2
1120,2.5,-8.6,-3.3000000000000003
1136,2.5,-8.6,-3.3000000000000003
1152,2.4000000000000004,-8.6,-3.4000000000000004
1168,2.5,-8.700000000000001,-3.5
1184,2.5,-8.700000000000001,-3.5
1200,2.8000000000000003,-8.700000000000001,-3.5
1216,3.3000000000000003,-8.700000000000001,-2.8000000000000003
1232,3.4000000000000004,-8.6,-2.9000000000000004
1248,3.4000000000000004,-8.6,-2.9000000000000004
1264,3.5,-8.6,-3.0
1280,3.5,-8.700000000000001,-3.2
1296,3.6,-8.6,-3.4000000000000004
1312,3.6,-8.6,-3.4000000000000004
1328,3.6,-8.6,-3.4000000000000004
1344,3.5,-8.3,-3.2
1360,3.6,-8.4,-3.3000000000000003
1376,3.6,-8.4,-3.3000000000000003
1392,3.8000000000000003,-8.6,-3.3000000000000003
1408,4.2,-8.700000000000001,-2.7
1424,4.1000000000000005,-8.5,-2.5
1440,4.1000000000000005,-8.5,-2.5
1456,4.1000000000000005,-8.4,-3.2
1472,4.2,-8.5,-3.6
1488,4.2,-8.5,-3.6
1504,4.4,-8.5,-3.6
1520,5.0,-8.3,-3.9000000000000004
1536,5.300000000000001,-8.3,-4.4
1552,5.300000000000001,-8.3,-4.4
1568,5.4,-8.200000000000001,-4.2
1584,5.1000000000000005,-8.1,-3.5
1600,5.0,-7.9,-3.5
1616,5.0,-7.9,-3.5
1632,4.6000000000000005,-7.800000000000001,-3.8000000000000003
1648,4.6000000000000005,-7.9,-3.9000000000000004
1664,4.6000000000000005,-7.9,-3.9000000000000004
1680,4.7,-7.9,-3.8000000000000003
1696,4.5,-7.9,-3.3000000000000003
1712,4.4,-7.800000000000001,-3.4000000000000004
1728,4.4,-7.800000000000001,-3.4000000000000004
1744,4.1000000000000005,-7.7,-3.4000000000000004
1760,4.1000000000000005,-7.7,-3.4000000000000004
1776,3.7,-8.0,-3.6
1792,3.7,-8.0,-3.6
1808,3.5,-8.200000000000001,-3.6
1824,3.3000000000000003,-8.200000000000001,-3.7
1840,3.4000000000000004,-8.1,-3.8000000000000003
1856,3.4000000000000004,-8.1,-3.8000000000000003
1872,3.5,-8.0,-3.9000000000000004
1888,3.6,-8.0,-3.6
1904,3.8000000000000003,-8.0,-3.6
1920,3.8000000000000003,-8.0,-3.6
1936,4.0,-8.200000000000001,-3.7
1952,4.0,-8.3,-3.6
1968,4.0,-8.3,-3.6
1984,4.0,-8.3,-3.6
2000,3.8000000000000003,-8.3,-3.7
2016,3.7,-8.5,-3.5
2032,3.7,-8.5,-3.5
2048,3.6,-8.8,-3.2
2064,3.5,-8.8,-3.0
2080,3.5,-8.700000000000001,-3.1
2096,3.5,-8.700000000000001,-3.1
2112,3.3000000000000003,-8.6,-3.2
2128,3.3000000000000003,-8.6,-3.2
2144,3.2,-8.6,-3.3000000000000003
2160,3.2,-8.6,-3.3000000000000003
2176,3.3000000000000003,-8.5,-3.1
2192,3.7,-8.8,-2.5
2208,3.5,-8.9,-2.3000000000000003
2224,3.5,-8.9,-2.3000000000000003
2240,3.3000000000000003,-8.9,-2.3000000000000003
2256,2.9000000000000004,-9.4,-2.5
2272,3.1,-9.3,-2.8000000000000003
2288,3.1,-9.3,-2.8000000000000003
2304,4.6000000000000005,-8.0,-3.3000000000000003
2320,4.2,-8.6,-1.2000000000000002
2336,2.6,-9.3,-0.2
2352,2.6,-9.3,-0.2
2368,1.1,-9.8,-2.1
2384,1.7000000000000002,-9.700000000000001,-3.0
2400,1.7000000000000002,-9.700000000000001,-3.0
2416,2.6,-9.0,-3.0
2432,2.1,-8.5,-2.3000000000000003
2448,1.5,-8.5,-2.1
2464,1.5,-8.5,-2.1
2480,1.2000000000000002,-9.3,-2.4000000000000004
2496,1.8,-8.6,-2.8000000000000003
2512,1.8,-8.6,-2.8000000000000003
2528,1.8,-8.6,-2.8000000000000003
2544,2.2,-7.7,-3.3000000000000003
2560,3.1,-7.9,-3.5
2576,2.7,-8.0,-3.8000000000000003
2592,2.7,-8.0,-3.8000000000000003
2608,1.9000000000000001,-7.5,-5.9
2624,2.3000000000000003,-6.9,-6.1000000000000005
2640,2.3000000000000003,-6.9,-6.1000000000000005
2656,2.5,-6.4,-5.9
2672,3.0,-7.4,-4.3
2688,3.3000000000000003,-8.1,-3.3000000000000003
2704,3.3000000000000003,-8.1,-3.3000000000000003
2720,2.8000000000000003,-8.9,-2.0
2736,1.6,-9.0,-4.3
2752,2.8000000000000003,-8.6,-4.4
2768,2.8000000000000003,-8.6,-4.4
2784,4.1000000000000005,-8.700000000000001,-3.4000000000000004
2800,4.3,-8.9,-2.8000000000000003
2816,4.3,-8.9,-2.8000000000000003
2832,4.0,-8.9,-2.3000000000000003
2848,2.0,-8.9,-4.9
2864,2.0,-8.9,-4.9
2880,1.6,-8.700000000000001,-5.300000000000001
2896,1.8,-7.0,-3.4000000000000004
2912,2.3000000000000003,-6.7,-3.3000000000000003
2928,2.3000000000000003,-6.7,-3.3000000000000003
2944,4.4,-7.2,-4.2
2960,4.4,-7.2,-4.2
2976,6.0,-10.600000000000001,-3.1
2992,2.9000000000000004,-10.600000000000001,-1.6
3008,2.9000000000000004,-10.600000000000001,-1.6
3024,1.2000000000000002,-8.5,-2.6
3040,4.2,-5.300000000000001,-5.2
3056,4.2,-5.300000000000001,-5.2
3072,4.2,-6.5,-4.9
3088,2.1,-9.5,-3.9000000000000004
3104,1.6,-10.3,-5.2
3120,1.5,-10.3,-6.4
3136,1.5,-10.3,-6.4
3152,2.1,-9.0,-6.4
3168,2.8000000000000003,-7.800000000000001,-6.0
3184,2.8000000000000003,-7.800000000000001,-6.0
3200,2.8000000000000003,-5.800000000000001,-6.4
3216,4.1000000000000005,-1.1,-7.6000000000000005
3232,5.800000000000001,-0.8,-7.6000000000000005
3248,5.800000000000001,-0.8,-7.6000000000000005
3264,3.5,-3.7,-7.2
3280,2.0,-5.300000000000001,-7.0
3296,2.0,-5.300000000000001,-7.0
3312,2.4000000000000004,-5.7,-7.800000000000001
3328,2.4000000000000004,-5.7,-7.800000000000001
3344,3.5,-3.6,-6.6000000000000005
3360,3.5,-3.6,-6.6000000000000005
3376,3.3000000000000003,-3.9000000000000004,-6.1000000000000005
3392,2.7,-5.5,-6.800000000000001
3408,3.0,-5.4,-7.0
3424,3.4000000000000004,-4.4,-7.0
3440,3.4000000000000004,-4.4,-7.0
3456,3.4000000000000004,-1.9000000000000001,-7.4
3472,3.6,-1.6,-7.2
3488,3.6,-1.6,-7.2
3504,4.1000000000000005,-2.3000000000000003,-6.0
3520,3.7,-2.2,-4.6000000000000005
3536,1.8,-1.5,-4.5
3552,1.8,-1.5,-4.5
3568,-2.2,2.7,-28.5
3584,-2.7,8.8,-15.8
3600,-9.700000000000001,8.0,-3.9000000000000004
3616,-9.700000000000001,8.0,-3.9000000000000004
3632,-0.9,-1.6,-3.1
3648,3.6,1.5,-6.7
3664,3.6,1.5,-6.7
3680,3.6,3.5,-13.8
3696,-0.2,3.1,-16.5
3712,-0.2,3.4000000000000004,-15.5
3728,-0.2,3.4000000000000004,-15.5
3744,-0.2,3.4000000000000004,-15.5
3760,-0.9,3.1,-15.9
3776,-1.5,4.1000000000000005,-16.1
3792,-1.5,4.1000000000000005,-16.1
3808,-1.6,5.7,-16.5
3824,-2.5,7.7,-20.3
3840,-2.8000000000000003,6.6000000000000005,-19.1
3856,-2.8000000000000003,6.6000000000000005,-19.1
3872,-2.1,4.4,-14.0
3888,-0.9,4.2,-12.9
3904,-0.9,4.2,-12.9
3920,0.2,3.6,-10.0
3936,0.7000000000000001,4.0,-7.4
3952,-0.4,5.0,-7.7
3968,-0.4,5.0,-7.7
3984,0.2,4.4,-8.9
4000,0.7000000000000001,6.0,-8.8
4016,1.3,6.6000000000000005,-7.5
4032,1.3,6.6000000000000005,-7.5
4048,0.7000000000000001,7.0,-5.6000000000000005
4064,0.0,5.300000000000001,-5.4
4080,-0.4,4.4,-5.300000000000001
4096,-0.4,4.4,-5.300000000000001
4112,-1.2000000000000002,5.4,-4.3
4128,-1.2000000000000002,5.4,-4.3
4144,-1.5,5.300000000000001,-3.4000000000000004
4160,-1.5,5.300000000000001,-3.4000000000000004
4176,-2.0,5.0,-2.5
4192,-1.9000000000000001,5.9,-3.1
4208,-2.3000000000000003,6.6000000000000005,-4.0
4224,-2.3000000000000003,6.6000000000000005,-4.0
4240,-2.6,7.6000000000000005,-5.1000000000000005
4256,-3.7,7.300000000000001,-5.5
4272,-3.7,7.300000000000001,-5.5
4288,-4.7,7.6000000000000005,-5.6000000000000005
4304,-5.2,7.5,-6.0
4320,-5.2,7.0,-5.800000000000001
4336,-5.2,7.0,-5.800000000000001
4352,-4.6000000000000005,7.4,-5.300000000000001
4368,-4.4,7.5,-4.4
4384,-4.4,7.5,-4.4
4400,-4.7,6.9,-3.1
4416,-5.9,5.2,-4.5
4432,-7.4,4.4,-2.9000000000000004
4448,-7.4,4.4,-2.9000000000000004
4464,-8.9,3.6,-1.3
4480,-9.3,3.0,-2.8000000000000003
4496,-10.200000000000001,2.5,-4.1000000000000005
4512,-10.200000000000001,2.5,-4.1000000000000005
4528,-10.200000000000001,2.5,-4.1000000000000005
4544,-12.700000000000001,2.0,-4.9
4560,-9.5,4.4,-6.1000000000000005
4576,-6.9,4.800000000000001,-6.9
4592,-6.9,4.800000000000001,-6.9
4608,-5.5,4.1000000000000005,-1.5
4624,-5.6000000000000005,3.8000000000000003,-2.3000000000000003
4640,-5.6000000000000005,3.8000000000000003,-2.3000000000000003
4656,-5.5,3.8000000000000003,-7.0
4672,-5.4,4.0,-8.200000000000001
4688,-7.300000000000001,3.8000000000000003,-8.3
4704,-7.300000000000001,3.8000000000000003,-8.3
4720,-5.300000000000001,4.800000000000001,-7.6000000000000005
4736,-5.6000000000000005,4.7,-7.5
4752,-5.6000000000000005,4.7,-7.5
4768,-7.0,3.7,-5.9
4784,-8.200000000000001,2.9000000000000004,-9.4
4800,-9.3,3.6,-10.700000000000001
4816,-9.3,3.6,-10.700000000000001
4832,-7.1000000000000005,3.6,-7.4
4848,-6.1000000000000005,3.6,-6.1000000000000005
4864,-5.5,3.5,-5.1000000000000005
4880,-5.5,3.5,-5.1000000000000005
4896,-6.0,3.5,-5.7
4912,-6.300000000000001,3.4000000000000004,-5.9
4928,-6.300000000000001,3.4000000000000004,-5.9
4944,-6.300000000000001,3.4000000000000004,-5.9
4960,-6.2,3.4000000000000004,-5.800000000000001
4976,-6.9,3.5,-5.9
4992,-7.4,3.6,-6.6000000000000005
5008,-7.4,3.6,-6.6000000000000005
5024,-7.1000000000000005,3.9000000000000004,-7.2
5040,-6.9,3.8000000000000003,-6.5
5056,-6.9,3.8000000000000003,-6.5
5072,-6.800000000000001,3.8000000000000003,-6.1000000000000005
5088,-6.7,3.7,-6.1000000000000005
5104,-6.800000000000001,3.8000000000000003,-6.4
5120,-6.800000000000001,3.8000000000000003,-6.4
5136,-6.9,3.8000000000000003,-6.5
5152,-6.800000000000001,3.7,-6.300000000000001
5168,-6.7,3.8000000000000003,-6.1000000000000005
5184,-6.7,3.8000000000000003,-6.1000000000000005
5200,-6.800000000000001,3.8000000000000003,-6.0
5216,-7.0,3.9000000000000004,-6.4
5232,-7.0,3.9000000000000004,-6.4
5248,-7.0,4.1000000000000005,-6.9
5264,-7.1000000000000005,4.1000000000000005,-7.1000000000000005
5280,-6.9,4.1000000000000005,-6.5
5296,-6.9,4.1000000000000005,-6.5
5312,-6.7,4.7,-7.1000000000000005
5328,-6.7,4.7,-7.1000000000000005
5344,-6.4,4.9,-7.4
5360,-6.4,4.9,-7.4
5376,-6.2,5.1000000000000005,-7.300000000000001
5392,-6.2,5.1000000000000005,-6.6000000000000005
5408,-6.4,5.2,-6.5
5424,-6.4,5.2,-6.5
5440,-6.1000000000000005,5.5,-6.800000000000001
5456,-5.6000000000000005,5.800000000000001,-7.2
5472,-5.2,5.9,-6.800000000000001
5488,-5.2,5.9,-6.800000000000001
5504,-5.2,6.2,-6.2
5520,-5.1000000000000005,6.2,-6.0
5536,-5.1000000000000005,6.2,-6.0
5552,-5.0,6.300000000000001,-5.800000000000001
5568,-4.5,6.6000000000000005,-5.5
5584,-4.5,6.7,-5.300000000000001
5600,-4.5,6.7,-5.300000000000001
5616,-4.6000000000000005,7.4,-5.2
5632,-4.800000000000001,7.4,-5.1000000000000005
5648,-4.5,7.7,-5.2
5664,-4.5,7.7,-5.2
5680,-4.2,7.800000000000001,-4.7
5696,-3.9000000000000004,7.9,-4.2
5712,-3.9000000000000004,7.9,-4.2
5728,-3.9000000000000004,7.9,-4.2
5744,-3.9000000000000004,7.7,-3.6
5760,-3.5,8.0,-3.3000000000000003
5776,-3.8000000000000003,8.200000000000001,-3.4000000000000004
5792,-3.8000000000000003,8.200000000000001,-3.4000000000000004
5808,-4.0,8.5,-3.9000000000000004
5824,-4.1000000000000005,8.6,-3.8000000000000003
5840,-4.1000000000000005,8.6,-3.8000000000000003
5856,-3.5,8.9,-3.4000000000000004
5872,-3.7,9.200000000000001,-3.2
5888,-3.8000000000000003,9.200000000000001,-3.4000000000000004
5904,-3.8000000000000003,9.200000000000001,-3.4000000000000004
5920,-3.8000000000000003,9.200000000000001,-3.3000000000000003
5936,-4.1000000000000005,9.3,-3.5
5952,-3.5,10.100000000000001,-3.8000000000000003
5968,-3.5,10.100000000000001,-3.8000000000000003
5984,-1.3,9.9,-2.2
6000,-1.1,9.3,-1.3
6016,-1.1,9.3,-1.3
6032,-1.0,9.4,-0.8
6048,-1.2000000000000002,9.5,-0.2
6064,-1.5,9.4,-0.30000000000000004
6080,-1.5,9.4,-0.30000000000000004
6096,-1.5,9.200000000000001,0.2
6112,-1.5,9.3,0.5
6128,-1.5,9.3,0.5
6144,-1.5,9.3,0.5
6160,-1.3,9.4,0.7000000000000001
6176,-0.9,9.600000000000001,0.9
6192,-0.4,9.5,1.2000000000000002
6208,-0.4,9.5,1.2000000000000002
6224,-0.1,9.600000000000001,1.4000000000000001
6240,0.4,9.5,2.6
6256,0.5,9.5,2.3000000000000003
6272,0.5,9.5,2.3000000000000003
6288,1.0,9.5,2.1
6304,0.9,9.4,2.1
6320,0.9,9.4,2.1
6336,0.9,9.3,2.0
6352,1.7000000000000002,9.200000000000001,2.2
6368,2.1,9.200000000000001,2.2
6384,2.1,9.200000000000001,2.2
6400,2.5,9.1,2.2
6416,2.8000000000000003,8.9,2.2
6432,2.9000000000000004,8.9,2.3000000000000003
6448,2.9000000000000004,8.9,2.3000000000000003
6464,3.4000000000000004,9.0,2.8000000000000003
6480,3.3000000000000003,8.8,2.7
6496,3.3000000000000003,8.8,2.7
6512,3.7,8.6,2.7
6528,3.7,8.6,2.7
6544,4.3,8.6,2.9000000000000004
6560,4.3,8.5,2.9000000000000004
6576,4.3,8.5,2.9000000000000004
6592,4.4,8.0,3.1
6608,4.3,7.9,3.2
6624,4.5,7.9,3.1
6640,4.5,7.9,3.1
6656,5.1000000000000005,7.7,3.2
6672,5.5,7.5,3.4000000000000004
6688,5.5,7.5,3.4000000000000004
6704,5.6000000000000005,7.5,3.5
6720,5.5,7.300000000000001,3.5
6736,5.6000000000000005,7.1000000000000005,3.5
6752,5.6000000000000005,7.1000000000000005,3.5
6768,6.2,6.9,3.6
6784,6.300000000000001,6.9,3.5
6800,6.2,6.9,3.5
6816,6.2,6.9,3.5
6832,6.7,7.0,3.5
6848,6.9,7.0,3.5
6864,6.9,7.0,3.5
6880,6.800000000000001,6.800000000000001,3.5
6896,6.4,6.1000000000000005,3.4000000000000004
6912,6.300000000000001,5.9,3.4000000000000004
6928,6.300000000000001,5.9,3.4000000000000004
6944,6.300000000000001,5.9,3.4000000000000004
6960,6.800000000000001,6.0,3.5
6976,7.0,5.800000000000001,3.6
6992,7.0,5.800000000000001,3.6
7008,7.2,5.300000000000001,3.8000000000000003
7024,7.300000000000001,5.1000000000000005,4.1000000000000005
7040,7.4,5.0,4.1000000000000005
7056,7.4,5.0,4.1000000000000005
7072,6.9,5.0,4.2
7088,6.9,4.9,4.0
7104,7.2,4.6000000000000005,3.9000000000000004
7120,7.2,4.6000000000000005,3.9000000000000004
7136,7.2,4.6000000000000005,3.8000000000000003
7152,7.2,4.800000000000001,3.9000000000000004
7168,7.2,4.800000000000001,3.9000000000000004
7184,7.6000000000000005,4.800000000000001,4.0
7200,7.6000000000000005,4.800000000000001,4.0
7216,7.7,4.7,3.9000000000000004
7232,7.7,4.7,3.9000000000000004
7248,7.300000000000001,4.7,3.7
7264,7.800000000000001,4.6000000000000005,3.5
7280,7.800000000000001,4.6000000000000005,3.5
7296,8.1,4.3,3.7
7312,7.800000000000001,4.3,3.7
7328,7.800000000000001,4.3,3.7
7344,7.300000000000001,4.4,3.5
7360,7.300000000000001,4.4,3.5
7376,7.6000000000000005,4.5,3.3000000000000003
7392,8.200000000000001,4.4,3.3000000000000003
7408,8.200000000000001,4.4,3.4000000000000004
7424,8.200000000000001,4.4,3.4000000000000004
7440,8.5,4.3,3.3000000000000003
7456,8.3,4.3,3.3000000000000003
7472,8.3,4.3,3.3000000000000003
7488,8.1,4.4,3.1
7504,8.6,4.5,3.0
7520,8.700000000000001,4.4,2.9000000000000004
7536,8.700000000000001,4.4,2.9000000000000004
7552,8.3,4.800000000000001,2.9000000000000004
7568,8.200000000000001,4.9,2.9000000000000004
7584,8.200000000000001,4.9,2.9000000000000004
7600,8.0,4.9,2.5
7616,8.200000000000001,5.0,2.5
7632,8.1,5.0,2.6
7648,8.1,5.0,2.6
7664,8.200000000000001,5.0,2.3000000000000003
7680,8.1,5.1000000000000005,2.4000000000000004
7696,8.1,5.1000000000000005,2.4000000000000004
7712,7.9,5.2,2.3000000000000003
7728,7.9,5.2,2.3000000000000003
7744,8.4,5.800000000000001,2.2
7760,8.4,5.9,2.1
7776,8.4,5.9,2.1
7792,8.3,5.5,2.1
7808,8.3,5.6000000000000005,2.1
7824,8.5,5.800000000000001,1.9000000000000001
7840,8.5,5.800000000000001,1.9000000000000001
7856,8.4,5.7,1.8
7872,7.800000000000001,5.6000000000000005,1.9000000000000001
7888,7.800000000000001,5.6000000000000005,1.9000000000000001
7904,7.7,5.7,1.7000000000000002
7920,7.7,5.800000000000001,1.5
7936,7.7,5.7,1.6
7952,7.7,5.7,1.6
7968,7.7,5.7,1.6
7984,7.9,5.6000000000000005,1.7000000000000002
8000,7.800000000000001,5.5,1.9000000000000001
8016,7.800000000000001,5.5,1.9000000000000001
8032,7.7,5.6000000000000005,2.0
8048,7.7,5.6000000000000005,1.8
8064,8.0,5.6000000000000005,1.5
8080,8.0,5.6000000000000005,1.5
8096,8.0,5.4,1.7000000000000002
8112,7.800000000000001,5.5,1.8
8128,7.800000000000001,5.5,1.8
8144,7.800000000000001,5.5,1.8
8160,7.800000000000001,5.6000000000000005,1.6
8176,8.200000000000001,5.4,1.0
8192,8.200000000000001,5.300000000000001,1.1
8208,8.200000000000001,5.300000000000001,1.1
8224,8.200000000000001,5.5,1.3
8240,8.200000000000001,5.4,1.2000000000000002
8256,8.200000000000001,5.4,1.2000000000000002
8272,8.4,5.4,1.0
8288,8.1,5.1000000000000005,0.8
8304,8.200000000000001,5.1000000000000005,0.9
8320,8.200000000000001,5.1000000000000005,0.9
8336,8.5,5.1000000000000005,0.9
8352,8.5,5.1000000000000005,0.9
8368,8.3,5.1000000000000005,0.9
8384,8.3,5.1000000000000005,0.9
8400,8.5,5.0,0.7000000000000001
8416,8.6,4.9,0.5
8432,8.6,4.9,0.5
8448,8.6,5.0,0.4
8464,8.5,5.0,0.4
8480,8.5,5.0,0.4
8496,8.5,5.0,0.4
8512,8.8,5.0,0.0
8528,8.8,5.0,0.0
8544,8.4,4.9,-0.2
8560,8.5,5.0,-0.2
8576,8.5,5.0,-0.2
8592,8.5,5.1000000000000005,-0.9
8608,8.4,5.0,-1.0
8624,8.4,5.0,-1.0
8640,8.4,5.0,-1.2000000000000002
8656,8.3,5.2,-1.6
8672,8.200000000000001,5.4,-1.8
8688,8.200000000000001,5.4,-1.8
8704,8.200000000000001,5.5,-2.3000000000000003
8720,8.0,5.4,-2.4000000000000004
8736,8.0,5.4,-2.4000000000000004
8752,7.9,5.6000000000000005,-2.6
8768,7.6000000000000005,5.5,-3.0
8784,7.6000000000000005,5.4,-3.0
8800,7.6000000000000005,5.4,-3.0
8816,7.5,5.5,-3.1
8832,7.4,5.6000000000000005,-3.4000000000000004
8848,7.1000000000000005,5.5,-3.5
8864,7.1000000000000005,5.5,-3.5
8880,7.1000000000000005,5.4,-3.6
8896,7.1000000000000005,5.5,-3.8000000000000003
8912,7.1000000000000005,5.5,-3.8000000000000003
8928,7.1000000000000005,5.5,-3.8000000000000003
8944,6.9,5.5,-4.1000000000000005
8960,6.4,5.300000000000001,-4.4
8976,6.2,5.300000000000001,-4.7
8992,6.2,5.300000000000001,-4.7
9008,6.300000000000001,5.300000000000001,-5.4
9024,6.2,5.300000000000001,-5.6000000000000005
9040,6.1000000000000005,5.0,-5.7
9056,6.1000000000000005,5.0,-5.7
9072,5.9,4.7,-6.0
9088,5.9,4.6000000000000005,-6.2
9104,5.9,4.6000000000000005,-6.2
9120,5.800000000000001,4.6000000000000005,-6.5
9136,5.800000000000001,4.3,-6.800000000000001
9152,5.7,4.3,-7.1000000000000005
9168,5.7,4.3,-7.1000000000000005
9184,5.7,4.0,-7.7
9200,5.7,3.9000000000000004,-8.0
9216,5.7,3.9000000000000004,-8.0
9232,5.800000000000001,3.9000000000000004,-8.4
9248,5.9,4.0,-8.700000000000001
9264,5.9,3.9000000000000004,-8.8
9280,5.9,3.9000000000000004,-8.8
9296,5.800000000000001,3.7,-8.8
9312,5.5,3.4000000000000004,-8.3
9328,5.5,3.4000000000000004,-8.3
9344,5.5,3.4000000000000004,-8.3
9360,5.5,3.3000000000000003,-8.200000000000001
9376,5.4,3.2,-8.200000000000001
9392,5.300000000000001,3.2,-8.1
9408,5.300000000000001,3.2,-8.1
9424,5.4,3.2,-8.1
9440,5.300000000000001,3.1,-8.0
9456,5.2,3.1,-8.1
9472,5.2,3.1,-8.1
9488,5.2,3.1,-8.0
9504,5.2,3.1,-8.0
9520,5.300000000000001,3.1,-8.0
9536,5.300000000000001,3.1,-8.0
9552,5.300000000000001,3.1,-8.1
9568,5.300000000000001,3.1,-8.1
9584,5.300000000000001,3.1,-8.1
9600,5.2,3.1,-8.0
9616,5.300000000000001,3.1,-8.0
9632,5.300000000000001,3.1,-8.0
9648,5.300000000000001,3.1,-8.0
9664,5.2,3.0,-8.0
9680,5.2,3.0,-8.0
9696,5.2,3.0,-8.0
9712,5.2,3.0,-8.0
9728,5.2,3.0,-8.0
9744,5.300000000000001,3.0,-8.1
9760,5.2,3.0,-8.1
9776,5.2,3.0,-8.1
9792,5.2,3.0,-8.1
9808,5.2,3.0,-8.1
9824,5.2,3.0,-8.1
9840,5.2,3.0,-8.1
9856,5.2,3.0,-8.1
9872,5.2,3.0,-8.1
9888,5.2,3.0,-8.1
9904,5.2,3.0,-8.1
9920,5.2,3.0,-8.1
9936,5.2,3.0,-8.200000000000001
9952,5.2,3.0,-8.200000000000001
9968,5.2,3.0,-8.200000000000001
9984,5.2,3.0,-8.200000000000001
