timestamp,accX,accY,accZ
0,2.4000000000000004,-5.1000000000000005,-2.1
16,2.2,-4.9,-1.9000000000000001
32,2.4000000000000004,-5.6000000000000005,-1.8
48,2.8000000000000003,-7.6000000000000005,-3.4000000000000004
64,3.6,-12.200000000000001,-4.0
80,3.6,-12.200000000000001,-4.0
96,4.4,-14.8,-2.1
112,4.800000000000001,-13.9,-1.5
128,4.4,-11.9,-1.1
144,3.8000000000000003,-10.0,-0.8
160,3.7,-8.700000000000001,-1.3
176,3.8000000000000003,-8.0,-2.3000000000000003
192,4.0,-7.9,-3.2
208,4.3,-7.9,-3.5
224,4.6000000000000005,-7.9,-3.5
240,4.5,-7.9,-3.9000000000000004
256,4.4,-8.200000000000001,-4.2
272,4.3,-8.4,-4.0
288,4.3,-8.4,-3.8000000000000003
304,4.3,-8.1,-3.8000000000000003
320,4.0,-7.7,-4.3
336,3.0,-7.9,-5.0
352,3.2,-8.0,-4.5
368,3.6,-8.1,-4.0
384,4.1000000000000005,-8.1,-3.6
400,4.800000000000001,-7.9,-3.1
416,5.5,-7.800000000000001,-2.1
432,6.4,-7.7,-0.6000000000000001
448,7.300000000000001,-7.300000000000001,0.30000000000000004
464,8.1,-6.9,-2.8000000000000003
480,8.1,-6.9,-2.8000000000000003
496,7.800000000000001,-6.4,-6.6000000000000005
512,6.1000000000000005,-6.4,-7.4
528,4.0,-6.800000000000001,-6.5
544,3.0,-6.9,-5.9
560,3.1,-6.6000000000000005,-4.6000000000000005
576,3.3000000000000003,-6.5,-2.2
592,3.2,-6.9,-2.4000000000000004
608,2.6,-7.9,-2.2
624,2.0,-9.5,-0.9
640,2.2,-10.600000000000001,-0.4
656,3.6,-10.9,-1.6
672,4.5,-10.8,-1.1
688,3.9000000000000004,-10.600000000000001,0.0
704,4.4,-10.200000000000001,-2.7
720,7.6000000000000005,-10.200000000000001,-7.1000000000000005
736,7.800000000000001,-9.700000000000001,-5.4
752,4.5,-8.9,-0.9
768,2.6,-7.9,-0.8
784,2.3000000000000003,-7.2,-3.4000000000000004
800,2.6,-6.9,-4.800000000000001
816,3.1,-6.9,-4.9
832,3.5,-7.300000000000001,-4.800000000000001
848,3.2,-8.200000000000001,-4.0
864,2.8000000000000003,-9.0,-3.1
880,2.8000000000000003,-9.0,-3.1
896,2.7,-9.1,-3.3000000000000003
912,2.5,-9.0,-3.7
928,2.3000000000000003,-9.0,-3.6
944,2.3000000000000003,-9.0,-3.5
960,2.6,-8.6,-4.1000000000000005
976,2.7,-8.1,-4.5
992,2.6,-7.9,-4.6000000000000005
1008,2.4000000000000004,-8.0,-4.2
1024,2.5,-8.200000000000001,-3.8000000000000003
1040,2.5,-8.6,-3.4000000000000004
1056,2.5,-9.0,-3.2
1072,2.4000000000000004,-9.3,-3.2
1088,2.2,-9.200000000000001,-3.1
1104,2.2,-8.8,-3.2
1120,2.4000000000000004,-8.5,-3.4000000000000004
1136,2.4000000000000004,-8.6,-3.5
1152,2.3000000000000003,-9.1,-3.4000000000000004
1168,2.0,-9.5,-3.3000000000000003
1184,2.2,-9.5,-3.2
1200,2.3000000000000003,-9.200000000000001,-3.5
1216,2.2,-8.9,-3.7
1232,2.0,-8.8,-3.7
1248,1.6,-8.9,-3.8000000000000003
1264,1.6,-9.0,-4.0
1280,1.6,-9.0,-4.0
1296,2.1,-8.8,-4.0
1312,2.4000000000000004,-8.4,-4.0
1328,1.8,-8.4,-3.6
1344,0.8,-8.9,-3.0
1360,-0.30000000000000004,-9.4,-2.9000000000000004
1376,-0.9,-9.5,-3.4000000000000004
1392,-0.8,-9.200000000000001,-4.1000000000000005
1408,-0.30000000000000004,-8.700000000000001,-4.5
1424,0.2,-8.700000000000001,-4.2
1440,0.7000000000000001,-8.6,-4.0
1456,1.0,-8.4,-3.8000000000000003
1472,1.5,-8.6,-3.4000000000000004
1488,2.2,-8.9,-3.0
1504,3.2,-9.1,-2.4000000000000004
1520,4.5,-9.3,-2.4000000000000004
1536,5.7,-9.4,-3.2
1552,6.1000000000000005,-9.0,-4.7
1568,5.9,-8.3,-4.9
1584,4.9,-7.4,-3.7
1600,3.8000000000000003,-6.800000000000001,-2.2
1616,4.0,-6.2,-1.4000000000000001
1632,4.6000000000000005,-6.0,-1.6
1648,4.9,-7.4,-2.6
1664,5.300000000000001,-10.100000000000001,-2.8000000000000003
1680,5.300000000000001,-10.100000000000001,-2.8000000000000003
1696,5.9,-12.100000000000001,-2.2
1712,5.9,-12.4,-1.7000000000000002
1728,5.1000000000000005,-11.200000000000001,-2.0
1744,3.6,-9.700000000000001,-2.6
1760,2.6,-8.5,-2.7
1776,2.1,-7.9,-2.4000000000000004
1792,2.2,-7.800000000000001,-2.2
1808,2.7,-7.9,-2.9000000000000004
1824,3.3000000000000003,-7.9,-4.2
1840,3.8000000000000003,-7.800000000000001,-5.6000000000000005
1856,3.9000000000000004,-7.6000000000000005,-5.800000000000001
1872,3.8000000000000003,-7.4,-5.300000000000001
1888,3.7,-7.1000000000000005,-4.800000000000001
1904,3.5,-7.2,-4.800000000000001
1920,3.5,-7.5,-4.3
1936,3.6,-7.7,-3.8000000000000003
1952,3.5,-7.9,-3.4000000000000004
1968,3.4000000000000004,-7.9,-3.2
1984,3.5,-7.6000000000000005,-3.6
2000,4.0,-7.2,-4.2
2016,4.5,-7.0,-5.0
2032,4.5,-7.1000000000000005,-6.1000000000000005
2048,3.9000000000000004,-7.4,-6.300000000000001
2064,3.1,-7.7,-5.9
2080,3.1,-7.7,-5.9
2096,2.7,-8.0,-5.300000000000001
2112,2.9000000000000004,-8.0,-4.7
2128,3.5,-7.800000000000001,-4.9
2144,4.0,-7.7,-5.2
2160,3.8000000000000003,-7.5,-5.4
2176,3.4000000000000004,-8.200000000000001,-6.2
2192,3.9000000000000004,-9.200000000000001,-6.4
2208,4.4,-10.4,-5.0
2224,4.9,-11.200000000000001,-3.0
2240,4.4,-11.5,-2.8000000000000003
2256,2.2,-10.9,-3.7
2272,1.0,-9.1,-4.3
2288,2.2,-7.7,-4.3
2304,3.6,-7.1000000000000005,-2.5
2320,3.8000000000000003,-7.2,0.4
2336,3.3000000000000003,-7.7,0.2
2352,3.1,-8.200000000000001,-2.5
2368,2.7,-8.6,-4.1000000000000005
2384,1.4000000000000001,-8.9,-4.5
2400,0.5,-9.0,-5.300000000000001
2416,1.2000000000000002,-8.6,-5.4
2432,2.4000000000000004,-8.200000000000001,-4.1000000000000005
2448,2.8000000000000003,-8.0,-2.7
2464,3.0,-7.800000000000001,-2.6
2480,3.0,-7.800000000000001,-2.6
2496,3.1,-7.5,-3.1
2512,2.7,-7.5,-3.4000000000000004
2528,2.1,-7.5,-3.9000000000000004
2544,2.1,-7.800000000000001,-4.1000000000000005
2560,2.3000000000000003,-8.200000000000001,-3.9000000000000004
2576,2.2,-8.200000000000001,-4.3
2592,2.5,-7.6000000000000005,-4.2
2608,2.2,-6.800000000000001,-3.7
2624,1.7000000000000002,-6.300000000000001,-4.0
2640,2.1,-6.800000000000001,-4.4
2656,3.4000000000000004,-7.4,-3.3000000000000003
2672,4.3,-7.5,-3.3000000000000003
2688,4.800000000000001,-6.800000000000001,-5.800000000000001
2704,4.7,-5.9,-5.0
2720,3.4000000000000004,-6.300000000000001,-4.3
2736,2.3000000000000003,-6.9,-4.6000000000000005
2752,2.8000000000000003,-6.4,-6.6000000000000005
2768,4.7,-5.2,-6.9
2784,5.5,-5.1000000000000005,-4.2
2800,4.1000000000000005,-5.9,-3.2
2816,3.3000000000000003,-6.5,-5.1000000000000005
2832,3.7,-7.1000000000000005,-6.1000000000000005
2848,4.3,-7.7,-6.1000000000000005
2864,4.7,-7.9,-5.5
2880,4.7,-7.9,-5.5
2896,4.9,-7.5,-4.800000000000001
2912,3.8000000000000003,-7.2,-4.800000000000001
2928,2.1,-7.1000000000000005,-5.0
2944,1.1,-7.0,-6.5
2960,1.3,-7.5,-6.800000000000001
2976,3.2,-8.6,-4.5
2992,3.3000000000000003,-9.700000000000001,-4.1000000000000005
3008,2.9000000000000004,-9.0,-6.5
3024,4.3,-6.800000000000001,-7.800000000000001
3040,5.1000000000000005,-4.7,-6.7
3056,3.7,-3.9000000000000004,-5.2
3072,2.1,-4.2,-4.4
3088,2.7,-4.800000000000001,-4.6000000000000005
3104,4.7,-5.1000000000000005,-4.9
3120,5.800000000000001,-5.0,-4.9
3136,5.5,-4.800000000000001,-4.800000000000001
3152,4.9,-4.9,-4.0
3168,4.4,-5.800000000000001,-3.8000000000000003
3184,4.4,-6.5,-4.5
3200,4.7,-6.4,-3.9000000000000004
3216,5.5,-5.9,-3.5
3232,6.5,-5.6000000000000005,-4.4
3248,6.2,-6.1000000000000005,-4.7
3264,5.9,-6.6000000000000005,-5.0
3280,5.9,-6.6000000000000005,-5.0
3296,4.9,-6.7,-5.0
3312,4.3,-6.300000000000001,-5.0
3328,5.7,-5.7,-5.0
3344,8.0,-5.9,-4.7
3360,8.5,-6.6000000000000005,-4.0
3376,7.300000000000001,-7.6000000000000005,-3.7
3392,6.2,-7.5,-3.8000000000000003
3408,5.300000000000001,-6.300000000000001,-3.8000000000000003
3424,6.0,-6.0,-4.6000000000000005
3440,6.9,-6.6000000000000005,-4.7
3456,7.6000000000000005,-6.800000000000001,-4.4
3472,7.2,-6.1000000000000005,-2.9000000000000004
3488,6.7,-6.0,-1.3
3504,6.2,-6.2,-0.4
3520,3.3000000000000003,-6.0,-1.2000000000000002
3536,3.0,-3.7,-2.7
3552,8.3,-0.4,-2.9000000000000004
3568,10.5,-0.7000000000000001,-2.8000000000000003
3584,10.4,-4.5,-2.6
3600,9.9,-9.200000000000001,-0.8
3616,6.6000000000000005,-10.4,2.7
3632,7.0,-6.1000000000000005,4.0
3648,12.4,-1.3,0.4
3664,14.8,-1.3,-0.5
3680,14.8,-1.3,-0.5
3696,9.700000000000001,-2.4000000000000004,-2.4000000000000004
3712,10.8,-1.0,4.3
3728,9.8,0.4,3.2
3744,7.1000000000000005,-0.4,0.4
3760,12.9,-2.8000000000000003,1.4000000000000001
3776,45.7,-1.7000000000000002,-8.200000000000001
3792,65.60000000000001,-7.0,16.0
3808,29.5,-12.600000000000001,25.0
3824,2.4000000000000004,-1.3,-3.7
3840,-13.700000000000001,-0.1,-31.1
3856,-20.5,0.5,-6.9
3872,-4.9,3.7,-2.4000000000000004
3888,12.5,2.9000000000000004,5.1000000000000005
3904,21.8,1.2000000000000002,8.1
3920,22.6,-0.8,8.5
3936,16.0,-1.2000000000000002,13.0
3952,10.9,-1.5,9.200000000000001
3968,6.7,-0.8,-2.8000000000000003
3984,3.0,2.1,-5.7
4000,1.8,5.9,-0.6000000000000001
4016,0.6000000000000001,8.3,6.0
4032,-0.8,9.3,9.700000000000001
4048,-0.8,8.700000000000001,9.8
4064,2.9000000000000004,6.2,7.4
4080,2.9000000000000004,6.2,7.4
4096,8.5,3.2,4.1000000000000005
4112,12.0,0.6000000000000001,2.4000000000000004
4128,14.5,-0.5,3.7
4144,11.200000000000001,-1.6,8.5
4160,6.0,-2.2,8.8
4176,2.9000000000000004,0.0,8.4
4192,1.2000000000000002,3.6,9.5
4208,1.8,6.300000000000001,10.3
4224,3.6,5.1000000000000005,9.1
4240,5.0,1.1,7.300000000000001
4256,6.2,-2.5,6.300000000000001
4272,6.5,-5.4,5.4
4288,6.2,-6.7,5.0
4304,5.5,-5.9,5.9
4320,5.0,-3.3000000000000003,7.1000000000000005
4336,5.1000000000000005,-0.6000000000000001,7.300000000000001
4352,7.2,1.1,5.9
4368,9.200000000000001,0.5,4.5
4384,9.4,-2.6,5.800000000000001
4400,9.600000000000001,-3.4000000000000004,7.300000000000001
4416,9.0,-1.9000000000000001,6.800000000000001
4432,7.1000000000000005,-1.0,5.4
4448,5.4,-2.0,4.3
4464,4.6000000000000005,-4.2,3.9000000000000004
4480,4.6000000000000005,-4.2,3.9000000000000004
4496,5.7,-6.2,5.2
4512,7.2,-6.300000000000001,6.6000000000000005
4528,6.5,-5.7,6.4
4544,5.4,-4.4,5.2
4560,5.800000000000001,-2.7,4.2
4576,6.6000000000000005,-2.9000000000000004,4.6000000000000005
4592,7.4,-4.4,5.5
4608,7.6000000000000005,-5.4,6.300000000000001
4624,6.800000000000001,-5.6000000000000005,6.4
4640,5.2,-5.1000000000000005,6.4
4656,3.9000000000000004,-4.6000000000000005,6.6000000000000005
4672,3.2,-4.5,7.0
4688,3.1,-5.5,8.1
4704,4.2,-6.7,8.4
4720,5.800000000000001,-6.4,7.300000000000001
4736,5.7,-5.5,7.4
4752,3.8000000000000003,-5.1000000000000005,7.0
4768,3.4000000000000004,-4.6000000000000005,5.9
4784,4.800000000000001,-4.6000000000000005,5.800000000000001
4800,6.5,-6.9,6.800000000000001
4816,7.0,-8.700000000000001,7.7
4832,5.1000000000000005,-7.7,6.9
4848,2.0,-5.6000000000000005,5.4
4864,-0.7000000000000001,-5.5,5.1000000000000005
4880,-0.7000000000000001,-5.5,5.1000000000000005
4896,1.3,-6.0,5.0
4912,4.4,-6.0,5.6000000000000005
4928,5.800000000000001,-6.5,7.6000000000000005
4944,6.5,-7.0,8.0
4960,6.0,-7.300000000000001,7.300000000000001
4976,4.7,-7.300000000000001,6.2
4992,3.2,-6.9,5.6000000000000005
5008,2.6,-6.1000000000000005,5.7
5024,2.9000000000000004,-5.300000000000001,6.1000000000000005
5040,3.6,-5.1000000000000005,7.1000000000000005
5056,4.2,-5.6000000000000005,7.1000000000000005
5072,4.6000000000000005,-5.9,6.5
5088,4.3,-6.2,6.300000000000001
5104,3.5,-6.0,6.5
5120,2.9000000000000004,-5.6000000000000005,6.6000000000000005
5136,2.7,-5.2,6.4
5152,2.9000000000000004,-4.7,6.4
5168,3.4000000000000004,-4.4,6.5
5184,3.7,-4.7,6.4
5200,3.8000000000000003,-5.300000000000001,6.5
5216,3.5,-5.800000000000001,6.7
5232,3.1,-6.1000000000000005,6.9
5248,2.8000000000000003,-6.2,7.0
5264,3.0,-6.0,7.6000000000000005
5280,3.0,-6.0,7.6000000000000005
5296,3.0,-5.800000000000001,8.4
5312,3.0,-5.1000000000000005,8.200000000000001
5328,2.2,-5.1000000000000005,7.7
5344,2.1,-5.1000000000000005,8.1
5360,2.3000000000000003,-4.9,7.5
5376,2.4000000000000004,-4.7,7.1000000000000005
5392,2.4000000000000004,-4.5,7.4
5408,1.9000000000000001,-4.5,8.200000000000001
5424,1.6,-4.6000000000000005,8.8
5440,1.6,-4.9,9.1
5456,2.1,-5.4,9.3
5472,2.8000000000000003,-5.6000000000000005,9.200000000000001
5488,2.9000000000000004,-5.6000000000000005,8.700000000000001
5504,2.8000000000000003,-5.300000000000001,7.800000000000001
5520,2.6,-4.6000000000000005,6.6000000000000005
5536,1.8,-3.9000000000000004,6.6000000000000005
5552,1.3,-3.9000000000000004,7.6000000000000005
5568,1.3,-4.5,8.5
5584,1.6,-5.1000000000000005,9.0
5600,1.4000000000000001,-5.4,9.0
5616,1.1,-5.6000000000000005,8.9
5632,0.9,-5.6000000000000005,9.0
5648,0.8,-5.300000000000001,9.1
5664,1.2000000000000002,-4.9,8.200000000000001
5680,1.4000000000000001,-4.5,7.300000000000001
5696,1.4000000000000001,-4.5,7.300000000000001
5712,1.1,-4.2,7.5
5728,0.7000000000000001,-4.4,8.200000000000001
5744,0.5,-4.7,8.5
5760,0.6000000000000001,-4.7,8.3
5776,0.5,-4.7,8.1
5792,0.4,-4.800000000000001,8.1
5808,0.4,-4.800000000000001,8.5
5824,0.6000000000000001,-5.0,9.0
5840,0.8,-5.300000000000001,9.1
5856,0.8,-5.0,8.700000000000001
5872,0.6000000000000001,-4.5,8.1
5888,0.5,-4.2,7.9
5904,0.5,-4.2,7.9
5920,0.5,-4.6000000000000005,8.1
5936,0.7000000000000001,-5.2,8.5
5952,1.0,-5.4,8.5
5968,1.1,-5.0,8.1
5984,0.9,-4.6000000000000005,7.800000000000001
6000,0.7000000000000001,-4.5,7.800000000000001
6016,0.5,-4.7,8.3
6032,0.6000000000000001,-4.800000000000001,8.6
6048,0.7000000000000001,-4.800000000000001,8.6
6064,0.7000000000000001,-4.800000000000001,8.3
6080,0.8,-4.6000000000000005,8.0
6096,0.8,-4.6000000000000005,8.0
6112,0.9,-4.4,7.9
6128,0.9,-4.4,8.200000000000001
6144,0.8,-4.6000000000000005,8.5
6160,0.9,-4.9,8.700000000000001
6176,1.2000000000000002,-4.800000000000001,8.3
6192,1.0,-4.5,7.9
6208,0.5,-4.1000000000000005,8.1
6224,0.1,-3.9000000000000004,8.6
6240,0.2,-4.3,9.1
6256,0.4,-4.7,9.1
6272,0.6000000000000001,-4.800000000000001,8.700000000000001
6288,0.6000000000000001,-4.7,8.700000000000001
6304,0.30000000000000004,-4.6000000000000005,8.6
6320,0.1,-4.4,8.4
6336,-0.1,-4.2,8.5
6352,-0.1,-4.2,8.5
6368,0.0,-4.4,8.4
6384,0.2,-4.5,8.3
6400,0.6000000000000001,-4.4,8.1
6416,0.9,-4.3,8.200000000000001
6432,1.0,-4.4,8.5
6448,0.7000000000000001,-4.7,8.700000000000001
6464,0.1,-5.0,8.700000000000001
6480,-0.6000000000000001,-5.1000000000000005,8.4
6496,-0.6000000000000001,-5.1000000000000005,8.4
6512,-1.1,-5.0,8.1
6528,-1.5,-4.800000000000001,8.1
6544,-1.6,-4.800000000000001,8.3
6560,-1.5,-5.1000000000000005,8.700000000000001
6576,-1.2000000000000002,-5.4,8.6
6592,-1.0,-5.2,8.3
6608,-0.9,-4.7,8.1
6624,-1.0,-4.6000000000000005,8.0
6640,-1.2000000000000002,-4.6000000000000005,8.1
6656,-1.3,-4.5,8.200000000000001
6672,-1.2000000000000002,-4.4,8.4
6688,-1.0,-4.3,8.5
6704,-0.8,-4.3,8.4
6720,-0.5,-4.5,8.4
6736,-0.30000000000000004,-4.7,8.700000000000001
6752,0.0,-4.7,8.8
6768,0.30000000000000004,-4.7,8.700000000000001
6784,0.2,-4.9,8.4
6800,-0.1,-5.2,8.200000000000001
6816,-0.5,-5.300000000000001,8.1
6832,-0.9,-5.2,8.1
6848,-1.2000000000000002,-5.0,8.1
6864,-1.4000000000000001,-4.7,8.0
6880,-1.3,-4.6000000000000005,8.0
6896,-1.3,-4.6000000000000005,8.0
6912,-1.1,-4.7,8.200000000000001
6928,-0.6000000000000001,-4.800000000000001,8.4
6944,-0.2,-4.9,8.6
6960,0.1,-4.9,8.5
6976,0.4,-4.800000000000001,8.4
6992,0.6000000000000001,-4.5,8.200000000000001
7008,0.4,-4.2,8.200000000000001
7024,0.30000000000000004,-4.1000000000000005,8.4
7040,0.2,-4.4,8.6
7056,0.30000000000000004,-4.6000000000000005,8.8
7072,0.4,-4.7,8.6
7088,0.6000000000000001,-4.6000000000000005,8.5
7104,0.8,-4.7,8.5
7120,0.9,-4.800000000000001,8.4
7136,0.8,-4.800000000000001,8.4
7152,0.6000000000000001,-4.6000000000000005,8.4
7168,0.4,-4.5,8.200000000000001
7184,0.2,-4.5,8.3
7200,0.0,-4.6000000000000005,8.5
7216,0.0,-4.7,8.5
7232,0.0,-4.800000000000001,8.5
7248,0.0,-4.9,8.6
7264,0.1,-4.9,8.700000000000001
7280,0.2,-5.2,8.5
7296,0.2,-5.2,8.5
7312,0.2,-5.2,8.200000000000001
7328,0.2,-5.0,7.9
7344,0.1,-4.7,7.800000000000001
7360,0.2,-4.7,7.800000000000001
7376,0.30000000000000004,-4.800000000000001,8.0
7392,0.4,-5.0,8.0
7408,0.6000000000000001,-5.1000000000000005,8.0
7424,1.0,-5.1000000000000005,8.0
7440,1.3,-5.2,8.3
7456,1.4000000000000001,-5.2,8.6
7472,1.1,-5.0,8.700000000000001
7488,0.6000000000000001,-4.9,8.5
7504,0.2,-4.800000000000001,8.3
7520,0.0,-4.9,8.200000000000001
7536,0.2,-4.9,8.3
7552,0.6000000000000001,-5.0,8.3
7568,1.2000000000000002,-5.1000000000000005,8.200000000000001
7584,1.5,-5.300000000000001,8.4
7600,1.2000000000000002,-5.6000000000000005,8.8
7616,0.8,-5.800000000000001,8.8
7632,1.0,-5.5,8.200000000000001
7648,1.3,-5.300000000000001,8.0
7664,1.2000000000000002,-5.6000000000000005,8.200000000000001
7680,0.8,-6.300000000000001,8.5
7696,0.8,-6.300000000000001,8.5
7712,0.8,-6.5,8.0
7728,1.5,-5.6000000000000005,7.1000000000000005
7744,2.0,-4.6000000000000005,6.9
7760,1.8,-4.5,7.2
7776,1.4000000000000001,-4.7,7.6000000000000005
7792,1.6,-4.7,7.800000000000001
7808,2.0,-4.800000000000001,8.1
7824,1.9000000000000001,-5.0,8.3
7840,1.6,-4.4,7.9
7856,1.5,-3.4000000000000004,7.7
7872,1.3,-3.2,8.3
7888,1.5,-3.9000000000000004,8.700000000000001
7904,2.2,-4.7,8.9
7920,2.9000000000000004,-4.800000000000001,8.8
7936,2.8000000000000003,-4.5,8.700000000000001
7952,2.3000000000000003,-4.1000000000000005,8.4
7968,2.2,-4.0,8.0
7984,2.3000000000000003,-4.2,8.1
8000,2.3000000000000003,-4.7,8.3
8016,2.1,-4.9,8.1
8032,2.0,-4.7,7.800000000000001
8048,2.2,-4.6000000000000005,7.7
8064,2.2,-4.7,8.200000000000001
8080,2.5,-4.9,8.700000000000001
8096,2.5,-4.9,8.700000000000001
8112,3.0,-5.2,8.9
8128,3.0,-5.1000000000000005,8.9
8144,3.2,-4.800000000000001,8.9
8160,2.9000000000000004,-4.5,8.6
8176,2.2,-4.0,7.800000000000001
8192,2.0,-3.0,7.2
8208,1.2000000000000002,-3.1,7.300000000000001
8224,1.1,-3.8000000000000003,7.6000000000000005
8240,1.6,-4.800000000000001,7.7
8256,2.1,-5.4,7.800000000000001
8272,2.5,-5.5,7.6000000000000005
8288,2.7,-5.2,7.5
8304,2.8000000000000003,-4.7,7.4
8320,3.0,-4.1000000000000005,7.300000000000001
8336,3.2,-3.9000000000000004,7.4
8352,3.3000000000000003,-4.2,7.7
8368,3.5,-4.6000000000000005,8.1
8384,3.8000000000000003,-4.7,8.5
8400,4.0,-4.6000000000000005,8.6
8416,3.9000000000000004,-4.3,8.3
8432,3.6,-3.9000000000000004,7.9
8448,3.2,-3.5,7.7
8464,3.0,-3.4000000000000004,7.6000000000000005
8480,3.3000000000000003,-3.6,7.6000000000000005
8496,3.3000000000000003,-3.6,7.6000000000000005
8512,3.5,-3.9000000000000004,7.800000000000001
8528,3.5,-4.1000000000000005,7.800000000000001
8544,3.5,-4.1000000000000005,7.7
8560,3.4000000000000004,-4.1000000000000005,7.7
8576,3.4000000000000004,-4.1000000000000005,7.7
8592,3.6,-4.1000000000000005,7.800000000000001
8608,3.8000000000000003,-4.3,7.9
8624,3.8000000000000003,-4.5,8.0
8640,3.8000000000000003,-4.5,8.0
8656,3.6,-4.4,8.0
8672,3.4000000000000004,-4.3,7.9
8688,3.4000000000000004,-4.3,7.800000000000001
8704,3.4000000000000004,-4.4,7.800000000000001
8720,3.4000000000000004,-4.5,7.9
8736,3.4000000000000004,-4.6000000000000005,7.9
8752,3.3000000000000003,-4.5,7.800000000000001
8768,3.3000000000000003,-4.3,7.7
8784,3.3000000000000003,-4.2,7.6000000000000005
8800,3.3000000000000003,-4.3,7.6000000000000005
8816,3.5,-4.4,7.7
8832,3.6,-4.5,7.800000000000001
8848,3.6,-4.6000000000000005,7.800000000000001
8864,3.7,-4.7,7.800000000000001
8880,3.7,-4.7,7.7
8896,3.7,-4.7,7.7
8912,3.7,-4.6000000000000005,7.6000000000000005
8928,3.8000000000000003,-4.5,7.5
8944,3.9000000000000004,-4.5,7.5
8960,3.8000000000000003,-4.6000000000000005,7.4
8976,3.7,-4.6000000000000005,7.4
8992,3.6,-4.6000000000000005,7.4
9008,3.5,-4.6000000000000005,7.5
9024,3.5,-4.800000000000001,7.6000000000000005
9040,3.8000000000000003,-4.9,7.7
9056,4.0,-5.0,7.9
9072,4.2,-5.0,7.9
9088,4.2,-4.9,7.800000000000001
9104,3.8000000000000003,-4.6000000000000005,7.800000000000001
9120,3.5,-4.4,7.7
9136,3.5,-4.2,7.6000000000000005
9152,3.6,-4.3,7.5
9168,3.8000000000000003,-4.5,7.6000000000000005
9184,3.9000000000000004,-4.5,7.7
9200,3.9000000000000004,-4.4,7.9
9216,3.6,-4.4,7.800000000000001
9232,3.5,-4.3,7.6000000000000005
9248,3.4000000000000004,-4.4,7.6000000000000005
9264,3.4000000000000004,-4.5,7.6000000000000005
9280,3.5,-4.6000000000000005,7.6000000000000005
9296,3.5,-4.6000000000000005,7.6000000000000005
9312,3.5,-4.7,7.6000000000000005
9328,3.5,-4.7,7.5
9344,3.4000000000000004,-4.7,7.5
9360,3.5,-4.7,7.6000000000000005
9376,3.5,-4.7,7.7
9392,3.6,-4.7,7.6000000000000005
9408,3.8000000000000003,-4.5,7.7
9424,4.0,-4.0,7.6000000000000005
9440,3.8000000000000003,-3.8000000000000003,7.7
9456,3.1,-4.5,7.9
9472,2.8000000000000003,-5.300000000000001,8.1
9488,2.9000000000000004,-5.6000000000000005,8.1
9504,3.1,-5.6000000000000005,8.1
9520,3.1,-5.1000000000000005,7.6000000000000005
9536,3.2,-4.5,7.4
9552,3.4000000000000004,-4.6000000000000005,7.6000000000000005
9568,3.6,-4.7,7.800000000000001
9584,3.8000000000000003,-4.5,7.5
9600,3.5,-4.3,7.1000000000000005
9616,3.0,-4.0,7.2
9632,2.9000000000000004,-4.0,7.6000000000000005
9648,3.0,-4.3,7.9
9664,3.0,-4.3,7.9
9680,3.9000000000000004,-4.9,7.9
9696,3.9000000000000004,-4.9,7.9
9712,4.3,-5.0,7.800000000000001
9728,4.2,-4.9,7.800000000000001
9744,3.8000000000000003,-4.6000000000000005,7.7
9760,3.6,-4.5,7.6000000000000005
9776,3.4000000000000004,-4.3,7.6000000000000005
9792,3.4000000000000004,-4.3,7.6000000000000005
9808,3.9000000000000004,-4.6000000000000005,7.800000000000001
9824,3.9000000000000004,-4.6000000000000005,7.800000000000001
9840,3.9000000000000004,-4.7,7.800000000000001
9856,3.7,-4.7,7.7
9872,3.4000000000000004,-4.4,7.5
9888,3.2,-4.4,7.4
9904,3.2,-4.3,7.4
9920,3.3000000000000003,-4.3,7.5
9936,3.5,-4.5,7.7
9952,3.6,-4.7,7.800000000000001
9968,3.5,-4.7,7.800000000000001
9984,3.3000000000000003,-4.7,7.800000000000001
