timestamp,accX,accY,accZ
0,-2.8000000000000003,-9.0,1.4000000000000001
16,-3.3000000000000003,-8.6,1.9000000000000001
32,-3.6,-8.3,2.6
48,-3.3000000000000003,-8.3,2.9000000000000004
64,-3.2,-8.4,2.8000000000000003
80,-3.2,-8.5,2.7
96,-3.3000000000000003,-8.700000000000001,2.4000000000000004
112,-3.3000000000000003,-8.700000000000001,2.4000000000000004
128,-3.3000000000000003,-8.700000000000001,2.4000000000000004
144,-3.2,-9.4,2.3000000000000003
160,-2.8000000000000003,-10.200000000000001,2.2
176,-2.1,-10.9,1.8
192,-1.4000000000000001,-11.0,1.6
208,-1.3,-10.200000000000001,1.5
224,-1.9000000000000001,-8.6,2.1
240,-1.9000000000000001,-8.6,2.1
256,-2.2,-8.3,2.7
272,-2.9000000000000004,-8.700000000000001,3.4000000000000004
288,-4.1000000000000005,-9.8,2.4000000000000004
304,-4.1000000000000005,-9.8,2.4000000000000004
320,-2.7,-9.200000000000001,1.0
336,-1.9000000000000001,-9.200000000000001,1.0
352,-1.7000000000000002,-9.0,1.7000000000000002
368,-1.0,-8.5,3.0
384,0.1,-7.9,4.4
400,0.2,-7.7,4.6000000000000005
416,0.2,-7.7,4.6000000000000005
432,-0.8,-8.3,3.3000000000000003
448,-1.9000000000000001,-8.700000000000001,2.4000000000000004
464,-2.9000000000000004,-9.1,3.0
480,-2.9000000000000004,-9.1,3.0
496,-2.7,-9.0,3.1
512,-2.0,-9.1,3.1
528,-2.0,-9.1,3.1
544,-1.5,-9.600000000000001,2.9000000000000004
560,-1.4000000000000001,-9.600000000000001,2.5
576,-1.6,-9.5,2.2
592,-1.9000000000000001,-9.1,2.3000000000000003
608,-1.9000000000000001,-9.1,2.3000000000000003
624,-1.9000000000000001,-8.9,2.6
640,-1.9000000000000001,-8.9,2.9000000000000004
656,-1.9000000000000001,-8.8,3.0
672,-2.0,-8.9,2.9000000000000004
688,-2.0,-9.0,2.9000000000000004
704,-2.0,-9.0,2.9000000000000004
720,-2.0,-9.0,2.9000000000000004
736,-1.9000000000000001,-9.0,2.9000000000000004
752,-1.8,-9.0,2.8000000000000003
768,-1.7000000000000002,-9.1,2.8000000000000003
784,-1.7000000000000002,-9.1,2.8000000000000003
800,-1.6,-9.1,2.7
816,-1.6,-9.200000000000001,2.7
832,-1.6,-9.1,2.8000000000000003
848,-1.7000000000000002,-9.0,2.9000000000000004
864,-1.9000000000000001,-9.0,2.9000000000000004
880,-1.9000000000000001,-9.0,2.8000000000000003
896,-1.9000000000000001,-9.0,2.8000000000000003
912,-1.8,-9.1,2.8000000000000003
928,-1.8,-9.1,2.8000000000000003
944,-1.9000000000000001,-9.1,2.8000000000000003
960,-1.9000000000000001,-9.1,2.8000000000000003
976,-1.8,-9.1,2.8000000000000003
992,-1.8,-9.0,2.9000000000000004
1008,-1.8,-9.1,2.9000000000000004
1024,-1.8,-9.0,2.9000000000000004
1040,-1.8,-9.0,2.9000000000000004
1056,-1.8,-9.0,2.9000000000000004
1072,-1.7000000000000002,-9.0,2.9000000000000004
1088,-1.7000000000000002,-9.0,2.9000000000000004
1104,-1.6,-9.0,2.9000000000000004
1120,-1.6,-9.0,2.8000000000000003
1136,-1.6,-9.0,2.9000000000000004
1152,-1.5,-9.1,2.9000000000000004
1168,-1.4000000000000001,-9.1,3.0
1184,-1.5,-9.1,3.0
1200,-1.5,-9.1,3.0
1216,-1.5,-9.0,2.9000000000000004
1232,-1.4000000000000001,-8.9,2.8000000000000003
1248,-0.8,-9.0,2.6
1264,-0.8,-9.0,2.6
1280,-0.7000000000000001,-9.200000000000001,2.5
1296,-0.7000000000000001,-9.4,2.2
1312,-0.5,-9.4,1.7000000000000002
1328,-0.5,-9.4,1.7000000000000002
1344,-0.30000000000000004,-9.700000000000001,1.1
1360,-0.6000000000000001,-10.100000000000001,0.5
1376,-1.4000000000000001,-10.200000000000001,-0.4
1392,-1.4000000000000001,-10.200000000000001,-0.4
1408,-1.5,-9.8,-0.2
1424,-1.7000000000000002,-9.3,0.0
1440,-2.0,-8.8,0.1
1456,-2.0,-8.8,0.1
1472,-2.0,-8.9,0.2
1488,-2.0,-9.200000000000001,0.0
1504,-2.0,-9.200000000000001,0.0
1520,-1.9000000000000001,-9.5,0.1
1536,-1.9000000000000001,-9.700000000000001,0.2
1552,-1.8,-9.8,0.2
1568,-1.8,-9.8,0.2
1584,-1.9000000000000001,-10.100000000000001,0.2
1600,-2.0,-10.100000000000001,0.30000000000000004
1616,-2.3000000000000003,-10.0,0.7000000000000001
1632,-2.3000000000000003,-10.0,0.7000000000000001
1648,-2.1,-10.0,0.8
1664,-1.9000000000000001,-10.0,0.8
1680,-1.9000000000000001,-10.0,0.8
1696,-2.0,-10.100000000000001,0.9
1712,-2.2,-9.600000000000001,1.0
1728,-2.2,-9.600000000000001,1.0
1744,-2.2,-9.3,1.0
1760,-2.2,-9.3,1.0
1776,-2.2,-9.700000000000001,1.1
1792,-2.1,-9.8,1.0
1808,-2.2,-9.3,0.8
1824,-2.3000000000000003,-8.6,0.8
1840,-2.3000000000000003,-9.200000000000001,0.9
1856,-2.3000000000000003,-9.600000000000001,1.1
1872,-2.3000000000000003,-9.600000000000001,1.1
1888,-2.5,-9.3,1.1
1904,-2.6,-9.3,1.1
1920,-2.6,-9.1,1.0
1936,-2.5,-8.9,0.9
1952,-2.4000000000000004,-8.9,0.9
1968,-2.5,-9.200000000000001,0.8
1984,-2.5,-9.200000000000001,0.8
2000,-2.5,-9.3,0.9
2016,-2.5,-9.200000000000001,1.2000000000000002
2032,-2.1,-8.8,1.0
2048,-2.1,-8.8,1.0
2064,-2.0,-8.6,0.9
2080,-2.0,-8.8,1.0
2096,-2.3000000000000003,-9.200000000000001,1.2000000000000002
2112,-2.6,-9.4,1.3
2128,-2.6,-9.4,1.3
2144,-2.9000000000000004,-9.4,1.2000000000000002
2160,-2.3000000000000003,-8.700000000000001,0.6000000000000001
2176,-2.3000000000000003,-8.700000000000001,0.6000000000000001
2192,-1.8,-8.8,0.8
2208,-2.0,-9.4,1.0
2224,-2.3000000000000003,-10.100000000000001,0.30000000000000004
2240,-2.3000000000000003,-10.100000000000001,0.30000000000000004
2256,-2.0,-10.5,0.2
2272,-1.9000000000000001,-11.200000000000001,0.4
2288,-1.8,-11.3,0.6000000000000001
2304,-1.6,-10.4,1.0
2320,-1.2000000000000002,-9.1,1.0
2336,-1.3,-9.1,1.3
2352,-1.3,-9.1,1.3
2368,-1.6,-9.4,1.4000000000000001
2384,-1.7000000000000002,-9.3,1.4000000000000001
2400,-1.5,-8.0,1.6
2416,-1.5,-8.0,1.6
2432,-1.6,-7.9,1.6
2448,-2.9000000000000004,-8.3,2.0
2464,-2.9000000000000004,-8.3,2.0
2480,-3.4000000000000004,-7.9,1.6
2496,-3.1,-7.300000000000001,1.4000000000000001
2512,-2.4000000000000004,-7.5,1.2000000000000002
2528,-2.4000000000000004,-7.5,1.2000000000000002
2544,-2.0,-8.3,1.2000000000000002
2560,-2.6,-8.5,1.5
2576,-3.3000000000000003,-8.200000000000001,1.3
2592,-3.5,-7.5,1.1
2608,-2.8000000000000003,-7.1000000000000005,1.2000000000000002
2624,-1.6,-7.4,1.6
2640,-1.2000000000000002,-8.3,2.1
2656,-1.2000000000000002,-8.3,2.1
2672,-1.3,-7.9,1.8
2688,-1.3,-7.0,1.5
2704,-0.5,-5.7,2.2
2720,-0.5,-5.7,2.2
2736,-0.1,-5.9,2.7
2752,-0.2,-5.6000000000000005,3.0
2768,-1.7000000000000002,-4.2,3.0
2784,-1.7000000000000002,-4.2,3.0
2800,-1.6,-3.8000000000000003,2.0
2816,-1.2000000000000002,-3.9000000000000004,1.4000000000000001
2832,-1.2000000000000002,-3.9000000000000004,1.4000000000000001
2848,-0.5,-3.1,1.7000000000000002
2864,0.2,-1.9000000000000001,2.6
2880,1.0,0.4,5.800000000000001
2896,1.0,0.4,5.800000000000001
2912,2.0,1.1,6.4
2928,2.0,1.1,6.4
2944,11.3,-0.2,3.1
2960,11.3,-0.2,3.1
2976,13.700000000000001,-0.7000000000000001,6.4
2992,47.2,-3.5,26.0
3008,-6.1000000000000005,15.3,-4.3
3024,-6.1000000000000005,15.3,-4.3
3040,1.0,7.800000000000001,13.3
3056,10.700000000000001,0.8,20.200000000000003
3072,19.5,3.8000000000000003,12.600000000000001
3088,16.3,2.6,21.400000000000002
3104,15.100000000000001,1.6,17.3
3120,8.200000000000001,2.2,8.0
3136,8.200000000000001,2.2,8.0
3152,5.1000000000000005,1.6,7.0
3168,4.9,1.1,4.6000000000000005
3184,6.300000000000001,4.3,6.2
3200,6.300000000000001,4.3,6.2
3216,5.1000000000000005,6.2,8.4
3232,4.4,7.6000000000000005,9.5
3248,3.2,7.6000000000000005,8.0
3264,3.0,5.300000000000001,5.1000000000000005
3280,3.4000000000000004,2.3000000000000003,6.6000000000000005
3296,5.4,3.3000000000000003,7.300000000000001
3312,5.4,3.3000000000000003,7.300000000000001
3328,5.4,3.3000000000000003,7.300000000000001
3344,4.1000000000000005,1.4000000000000001,7.2
3360,3.8000000000000003,1.8,6.2
3376,3.4000000000000004,2.0,3.4000000000000004
3392,3.2,1.8,3.8000000000000003
3408,3.9000000000000004,2.2,6.6000000000000005
3424,5.0,3.1,8.6
3440,5.0,3.1,8.6
3456,5.0,3.4000000000000004,8.9
3472,5.2,3.7,9.1
3488,5.0,4.4,9.0
3504,5.0,4.4,9.0
3520,4.9,4.800000000000001,8.700000000000001
3536,4.7,4.9,8.5
3552,4.2,4.800000000000001,8.3
3568,3.7,4.800000000000001,7.800000000000001
3584,3.5,4.6000000000000005,7.4
3600,3.9000000000000004,4.4,7.2
3616,3.9000000000000004,4.4,7.2
3632,3.8000000000000003,4.4,7.2
3648,3.8000000000000003,4.4,7.1000000000000005
3664,3.9000000000000004,4.3,7.300000000000001
3680,3.9000000000000004,4.3,7.300000000000001
3696,3.9000000000000004,4.3,7.4
3712,4.1000000000000005,4.1000000000000005,7.6000000000000005
3728,4.1000000000000005,4.1000000000000005,7.6000000000000005
3744,4.4,4.1000000000000005,8.0
3760,4.6000000000000005,4.4,8.0
3776,4.7,4.5,8.5
3792,5.1000000000000005,4.4,8.6
3808,5.1000000000000005,4.4,8.6
3824,5.1000000000000005,4.3,8.4
3840,4.9,4.0,8.5
3856,4.7,3.9000000000000004,8.200000000000001
3872,4.5,3.8000000000000003,8.0
3888,4.3,3.7,7.800000000000001
3904,4.1000000000000005,3.5,7.800000000000001
3920,4.1000000000000005,3.4000000000000004,7.800000000000001
3936,4.1000000000000005,3.4000000000000004,7.800000000000001
3952,4.0,3.4000000000000004,7.6000000000000005
3968,3.9000000000000004,3.3000000000000003,6.6000000000000005
3984,3.9000000000000004,3.3000000000000003,6.6000000000000005
4000,3.9000000000000004,3.5,7.4
4016,3.9000000000000004,3.5,7.1000000000000005
4032,3.9000000000000004,3.4000000000000004,7.800000000000001
4048,3.8000000000000003,3.3000000000000003,10.5
4064,4.2,3.3000000000000003,10.200000000000001
4080,4.3,2.8000000000000003,9.8
4096,4.3,2.8000000000000003,9.8
4112,4.6000000000000005,2.7,9.700000000000001
4128,4.6000000000000005,2.7,9.700000000000001
4144,4.4,2.5,9.200000000000001
4160,4.2,2.5,9.200000000000001
4176,4.3,2.5,9.200000000000001
4192,4.2,2.3000000000000003,9.600000000000001
4208,4.2,2.3000000000000003,9.5
4224,4.2,2.1,9.0
4240,4.2,2.2,9.3
4256,4.3,2.3000000000000003,9.200000000000001
4272,4.3,1.7000000000000002,9.200000000000001
4288,4.6000000000000005,1.8,9.3
4304,4.9,1.7000000000000002,8.9
4320,4.7,1.7000000000000002,8.700000000000001
4336,4.800000000000001,1.4000000000000001,8.700000000000001
4352,5.0,1.5,9.0
4368,5.0,1.4000000000000001,9.0
4384,5.1000000000000005,1.3,8.6
4400,5.1000000000000005,1.3,8.6
4416,4.9,1.1,8.3
4432,5.1000000000000005,1.0,8.1
4448,5.2,0.9,8.6
4464,5.2,0.9,8.6
4480,5.300000000000001,0.8,8.5
4496,5.300000000000001,0.7000000000000001,8.4
4512,5.1000000000000005,0.5,8.200000000000001
4528,5.1000000000000005,0.5,8.200000000000001
4544,5.1000000000000005,0.2,7.9
4560,5.0,0.2,7.7
4576,5.9,0.5,8.6
4592,5.9,0.5,8.6
4608,5.800000000000001,0.7000000000000001,8.5
4624,5.6000000000000005,1.0,8.5
4640,5.9,1.3,8.200000000000001
4656,6.7,2.0,7.9
4672,6.800000000000001,1.2000000000000002,7.2
4688,7.7,-0.4,6.800000000000001
4704,8.5,-0.4,8.1
4720,7.800000000000001,-0.1,7.9
4736,7.2,-1.2000000000000002,7.0
4752,5.6000000000000005,-2.3000000000000003,6.9
4768,5.6000000000000005,-2.3000000000000003,6.9
4784,4.0,-1.6,6.9
4800,2.8000000000000003,-1.0,6.2
4816,1.9000000000000001,-0.8,5.6000000000000005
4832,1.5,-1.8,5.300000000000001
4848,2.0,-3.3000000000000003,4.9
4864,4.5,-5.1000000000000005,4.1000000000000005
4880,4.5,-5.1000000000000005,4.1000000000000005
4896,4.9,-5.6000000000000005,3.8000000000000003
4912,5.2,-6.0,3.9000000000000004
4928,5.2,-6.0,3.9000000000000004
4944,5.5,-6.6000000000000005,3.7
4960,5.5,-6.6000000000000005,3.7
4976,5.7,-6.7,3.7
4992,5.7,-6.300000000000001,3.9000000000000004
5008,5.5,-5.9,3.9000000000000004
5024,5.4,-6.0,3.6
5040,5.300000000000001,-6.4,3.4000000000000004
5056,4.0,-6.9,2.8000000000000003
5072,4.0,-6.9,2.8000000000000003
5088,3.4000000000000004,-7.4,2.3000000000000003
5104,3.2,-8.3,2.0
5120,4.0,-9.3,2.0
5136,4.9,-10.0,2.2
5152,5.300000000000001,-9.8,2.6
5168,4.6000000000000005,-9.1,2.7
5184,3.4000000000000004,-8.700000000000001,2.1
5200,1.6,-10.200000000000001,0.5
5216,2.0,-13.8,-0.9
5232,4.3,-15.600000000000001,-1.2000000000000002
5248,4.0,-13.8,3.3000000000000003
5264,2.1,-10.5,4.4
5280,2.9000000000000004,-8.8,2.2
5296,5.1000000000000005,-7.4,3.2
5312,2.9000000000000004,-8.4,2.1
5328,2.9000000000000004,-8.4,2.1
5344,0.1,-9.200000000000001,0.7000000000000001
5360,-1.8,-10.4,-0.4
5376,-1.8,-10.4,-0.4
5392,-0.6000000000000001,-9.700000000000001,1.5
5408,1.5,-8.8,3.8000000000000003
5424,3.0,-8.1,4.0
5440,3.0,-8.1,4.0
5456,2.7,-7.7,3.6
5472,1.8,-7.6000000000000005,3.1
5488,0.7000000000000001,-8.0,3.0
5504,-0.1,-9.0,2.6
5520,-0.2,-9.8,2.1
5536,1.3,-10.200000000000001,2.4000000000000004
5552,1.3,-10.200000000000001,2.4000000000000004
5568,1.3,-9.200000000000001,4.0
5584,0.2,-8.0,4.3
5600,0.2,-7.1000000000000005,4.0
5616,0.2,-7.1000000000000005,4.0
5632,1.0,-8.3,4.2
5648,0.8,-9.4,4.0
5664,0.6000000000000001,-9.700000000000001,3.6
5680,0.5,-8.9,3.6
5696,0.2,-8.0,3.9000000000000004
5712,0.4,-7.9,4.9
5728,0.4,-7.9,4.9
5744,0.4,-7.9,4.9
5760,0.30000000000000004,-8.4,4.9
5776,0.1,-8.4,4.6000000000000005
5792,-0.5,-8.5,4.3
5808,-0.5,-8.700000000000001,4.800000000000001
5824,-0.30000000000000004,-8.8,5.1000000000000005
5840,-0.8,-8.6,4.3
5856,-0.8,-8.6,4.3
5872,-1.1,-8.4,4.3
5888,-1.3,-8.0,4.6000000000000005
5904,-0.7000000000000001,-7.2,5.2
5920,-0.7000000000000001,-7.2,5.2
5936,-0.1,-7.1000000000000005,5.0
5952,0.1,-7.0,4.800000000000001
5968,-0.6000000000000001,-7.300000000000001,5.0
5984,-0.8,-7.6000000000000005,5.2
6000,-0.30000000000000004,-7.7,5.300000000000001
6016,-0.1,-8.5,5.7
6032,-0.1,-8.5,5.7
6048,-0.6000000000000001,-8.9,5.5
6064,-0.6000000000000001,-8.6,5.2
6080,-0.30000000000000004,-7.800000000000001,5.5
6096,-0.30000000000000004,-7.1000000000000005,5.9
6112,-0.5,-6.9,5.800000000000001
6128,-1.3,-6.6000000000000005,5.800000000000001
6144,-1.3,-6.6000000000000005,5.800000000000001
6160,-1.3,-6.6000000000000005,5.800000000000001
6176,-1.7000000000000002,-6.800000000000001,5.800000000000001
6192,-2.1,-6.9,5.9
6208,-1.8,-6.5,6.300000000000001
6224,-1.8,-6.5,6.300000000000001
6240,-1.3,-6.4,6.0
6256,-1.4000000000000001,-6.4,6.0
6272,-1.7000000000000002,-6.300000000000001,5.9
6288,-1.8,-6.2,6.800000000000001
6304,-1.7000000000000002,-6.2,6.800000000000001
6320,-2.5,-6.300000000000001,6.800000000000001
6336,-2.5,-6.300000000000001,6.800000000000001
6352,-2.8000000000000003,-6.1000000000000005,6.9
6368,-2.5,-5.800000000000001,7.300000000000001
6384,-2.4000000000000004,-5.4,7.2
6400,-2.4000000000000004,-5.4,7.2
6416,-2.6,-5.2,7.2
6432,-2.8000000000000003,-5.2,7.1000000000000005
6448,-2.8000000000000003,-5.2,7.1000000000000005
6464,-2.9000000000000004,-5.1000000000000005,7.2
6480,-2.8000000000000003,-4.800000000000001,7.2
6496,-3.0,-4.4,7.5
6512,-3.0,-4.4,7.5
6528,-3.4000000000000004,-4.3,7.800000000000001
6544,-3.4000000000000004,-4.3,7.800000000000001
6560,-3.4000000000000004,-4.2,7.6000000000000005
6576,-3.4000000000000004,-4.2,7.5
6592,-3.4000000000000004,-4.1000000000000005,7.9
6608,-3.4000000000000004,-4.1000000000000005,7.9
6624,-4.4,-4.1000000000000005,8.9
6640,-4.4,-4.1000000000000005,8.9
6656,-5.1000000000000005,-3.9000000000000004,8.200000000000001
6672,-7.0,-3.0,8.3
6688,-1.9000000000000001,-4.5,11.5
6704,-1.9000000000000001,-4.5,11.5
6720,-1.0,-4.4,12.5
6736,-0.2,-4.2,12.0
6752,0.0,-4.1000000000000005,12.100000000000001
6768,-0.30000000000000004,-3.8000000000000003,11.5
6784,-0.8,-3.8000000000000003,10.8
6800,-1.8,-3.5,10.100000000000001
6816,-1.8,-3.5,10.100000000000001
6832,-2.1,-3.4000000000000004,9.600000000000001
6848,-2.4000000000000004,-3.1,9.1
6864,-3.3000000000000003,-2.2,8.3
6880,-3.3000000000000003,-2.2,8.3
6896,-3.6,-2.1,8.1
6912,-3.5,-2.3000000000000003,8.0
6928,-3.3000000000000003,-2.8000000000000003,8.1
6944,-3.3000000000000003,-2.8000000000000003,8.1
6960,-3.3000000000000003,-3.6,8.1
6976,-3.0,-3.9000000000000004,8.200000000000001
6992,-3.0,-3.9000000000000004,8.1
7008,-3.0,-3.9000000000000004,8.1
7024,-3.0,-3.7,8.3
7040,-3.1,-3.6,8.1
7056,-3.2,-3.5,8.0
7072,-3.2,-3.5,8.1
7088,-3.3000000000000003,-3.5,8.200000000000001
7104,-3.3000000000000003,-3.7,8.200000000000001
7120,-3.3000000000000003,-3.7,8.200000000000001
7136,-3.2,-3.8000000000000003,8.1
7152,-3.1,-3.8000000000000003,8.200000000000001
7168,-2.5,-3.7,8.200000000000001
7184,-2.5,-3.7,8.200000000000001
7200,-2.5,-3.6,8.1
7216,-2.6,-3.7,8.1
7232,-2.9000000000000004,-3.9000000000000004,8.0
7248,-3.0,-4.0,8.0
7264,-3.0,-4.2,7.9
7280,-3.2,-4.3,8.3
7296,-3.2,-4.3,8.3
7312,-3.2,-4.2,8.4
7328,-3.3000000000000003,-4.2,8.4
7344,-3.3000000000000003,-4.2,8.4
7360,-3.3000000000000003,-4.2,8.5
7376,-3.2,-4.2,8.4
7392,-3.1,-4.2,8.5
7408,-3.0,-4.3,8.5
7424,-2.9000000000000004,-4.2,8.5
7440,-2.8000000000000003,-4.2,8.5
7456,-2.8000000000000003,-4.2,8.5
7472,-3.0,-4.1000000000000005,8.3
7488,-3.0,-4.1000000000000005,8.3
7504,-2.9000000000000004,-4.1000000000000005,8.3
7520,-3.0,-4.2,8.3
7536,-2.9000000000000004,-4.2,8.3
7552,-2.9000000000000004,-4.2,8.3
7568,-2.9000000000000004,-4.3,8.3
7584,-2.9000000000000004,-4.4,8.3
7600,-2.9000000000000004,-4.4,8.3
7616,-2.6,-4.4,8.0
7632,-2.6,-4.4,8.0
7648,-2.8000000000000003,-4.6000000000000005,8.5
7664,-2.8000000000000003,-4.6000000000000005,8.5
7680,-3.0,-4.7,8.3
7696,-2.8000000000000003,-4.6000000000000005,8.200000000000001
7712,-2.4000000000000004,-4.7,8.200000000000001
7728,-2.1,-4.5,8.3
7744,-2.1,-4.5,8.3
7760,-2.2,-4.5,8.5
7776,-2.9000000000000004,-4.9,8.6
7792,-2.9000000000000004,-4.9,8.6
7808,-3.2,-5.1000000000000005,8.700000000000001
7824,-2.9000000000000004,-5.0,8.5
7840,-1.8,-4.800000000000001,8.4
7856,-1.8,-4.800000000000001,8.4
7872,-1.7000000000000002,-4.7,8.3
7888,-1.7000000000000002,-4.800000000000001,8.200000000000001
7904,-1.8,-4.800000000000001,8.0
7920,-1.8,-4.9,7.9
7936,-1.7000000000000002,-4.9,7.800000000000001
7952,-1.7000000000000002,-5.1000000000000005,7.7
7968,-1.7000000000000002,-5.1000000000000005,7.7
7984,-1.7000000000000002,-5.2,7.7
8000,-1.8,-5.300000000000001,7.7
8016,-1.8,-5.4,7.800000000000001
8032,-1.9000000000000001,-5.5,7.800000000000001
8048,-1.9000000000000001,-5.7,7.6000000000000005
8064,-1.9000000000000001,-5.9,7.5
8080,-1.9000000000000001,-5.9,7.5
8096,-1.9000000000000001,-5.9,7.4
8112,-1.7000000000000002,-5.9,7.2
8128,-1.6,-5.9,7.1000000000000005
8144,-1.6,-5.9,7.1000000000000005
8160,-1.5,-6.0,7.0
8176,-1.5,-5.9,6.9
8192,-1.4000000000000001,-5.9,6.9
8208,-1.7000000000000002,-6.2,6.800000000000001
8224,-1.7000000000000002,-6.2,6.800000000000001
8240,-1.7000000000000002,-6.300000000000001,6.6000000000000005
8256,-1.4000000000000001,-6.300000000000001,6.7
8272,-1.4000000000000001,-6.300000000000001,6.7
8288,-1.5,-6.5,6.800000000000001
8304,-1.6,-6.6000000000000005,6.800000000000001
8320,-1.6,-6.7,6.7
8336,-1.5,-6.7,6.6000000000000005
8352,-1.5,-6.7,6.6000000000000005
8368,-1.6,-6.7,6.6000000000000005
8384,-1.4000000000000001,-6.6000000000000005,6.5
8400,-1.3,-6.7,6.5
8416,-1.3,-6.800000000000001,6.5
8432,-1.3,-6.800000000000001,6.2
8448,-1.3,-6.800000000000001,6.2
8464,-1.3,-6.800000000000001,6.2
8480,-1.3,-6.800000000000001,6.2
8496,-1.5,-7.0,6.2
8512,-1.5,-7.0,6.2
8528,-1.5,-7.0,6.4
8544,-1.5,-7.0,6.4
8560,-1.4000000000000001,-6.9,6.1000000000000005
8576,-1.4000000000000001,-6.9,6.1000000000000005
8592,-1.4000000000000001,-6.9,6.1000000000000005
8608,-1.5,-6.9,6.300000000000001
8624,-1.8,-7.300000000000001,6.7
8640,-1.8,-7.300000000000001,6.7
8656,-1.7000000000000002,-7.300000000000001,6.5
8672,-1.6,-7.2,6.300000000000001
8688,-1.4000000000000001,-7.2,6.1000000000000005
8704,-1.0,-7.0,6.2
8720,-0.7000000000000001,-6.800000000000001,6.2
8736,-1.2000000000000002,-7.0,6.300000000000001
8752,-1.2000000000000002,-7.0,6.300000000000001
8768,-1.4000000000000001,-7.2,6.0
8784,-0.9,-7.5,6.0
8800,-0.8,-7.300000000000001,5.9
8816,-0.8,-7.300000000000001,5.9
8832,-1.2000000000000002,-7.300000000000001,5.9
8848,-1.7000000000000002,-7.300000000000001,6.0
8864,-1.7000000000000002,-7.2,6.2
8880,-1.5,-7.2,6.0
8896,-1.4000000000000001,-7.4,5.800000000000001
8912,-1.3,-7.5,5.4
8928,-1.3,-7.5,5.4
8944,-1.3,-7.5,5.4
8960,-1.3,-7.5,5.5
8976,-1.4000000000000001,-7.5,5.6000000000000005
8992,-1.5,-7.7,5.7
9008,-1.5,-7.800000000000001,5.5
9024,-1.4000000000000001,-7.800000000000001,5.1000000000000005
9040,-0.7000000000000001,-7.6000000000000005,5.5
9056,-0.7000000000000001,-7.6000000000000005,5.5
9072,-0.7000000000000001,-7.5,5.6000000000000005
9088,-0.8,-7.6000000000000005,5.300000000000001
9104,-1.2000000000000002,-8.0,5.1000000000000005
9120,-1.2000000000000002,-8.0,5.1000000000000005
9136,-0.9,-7.9,5.300000000000001
9152,-0.6000000000000001,-7.800000000000001,5.4
9168,-0.4,-7.800000000000001,5.2
9184,-0.4,-8.1,5.0
9200,-0.4,-8.3,4.9
9216,-0.9,-8.1,5.300000000000001
9232,-0.9,-8.1,5.300000000000001
9248,-0.6000000000000001,-7.800000000000001,5.4
9264,-0.4,-7.800000000000001,5.300000000000001
9280,-1.3,-8.1,5.4
9296,-1.3,-8.1,5.4
9312,-1.4000000000000001,-7.800000000000001,5.1000000000000005
9328,-1.0,-7.7,5.300000000000001
9344,-1.0,-7.7,5.300000000000001
9360,-0.8,-7.9,5.4
9376,-1.1,-8.200000000000001,5.4
9392,-1.0,-8.1,5.4
9408,-0.9,-8.0,5.4
9424,-0.9,-8.0,5.4
9440,-1.1,-7.9,5.300000000000001
9456,-1.2000000000000002,-8.0,5.4
9472,-1.5,-7.9,5.1000000000000005
9488,-1.6,-8.0,4.800000000000001
9504,-1.2000000000000002,-7.9,5.1000000000000005
9520,-1.1,-8.200000000000001,5.0
9536,-1.1,-8.200000000000001,5.0
9552,-1.2000000000000002,-8.4,5.1000000000000005
9568,-1.1,-8.4,5.1000000000000005
9584,-0.8,-8.3,4.800000000000001
9600,-0.8,-8.3,4.800000000000001
9616,-0.9,-8.200000000000001,5.0
9632,-1.2000000000000002,-8.200000000000001,4.800000000000001
9648,-1.4000000000000001,-8.200000000000001,4.7
9664,-1.3,-8.3,4.7
9680,-1.2000000000000002,-8.3,4.7
9696,-1.3,-8.4,4.5
9712,-1.3,-8.4,4.5
9728,-1.2000000000000002,-8.4,4.4
9744,-1.2000000000000002,-8.4,4.4
9760,-1.3,-8.4,4.5
9776,-1.3,-8.4,4.4
9792,-1.2000000000000002,-8.3,4.5
9808,-1.3,-8.4,4.3
9824,-1.3,-8.5,4.2
9840,-1.3,-8.5,4.3
9856,-1.4000000000000001,-8.5,4.1000000000000005
9872,-1.3,-8.5,3.9000000000000004
9888,-0.8,-8.700000000000001,4.0
9904,-0.8,-8.700000000000001,4.0
9920,-0.8,-8.6,4.0
9936,-1.0,-8.5,3.9000000000000004
9952,-1.6,-8.700000000000001,3.5
9968,-1.6,-8.700000000000001,3.5
9984,-1.4000000000000001,-8.6,3.8000000000000003
