timestamp,accX,accY,accZ
0,-3.4000000000000004,-8.9,1.4000000000000001
16,-3.4000000000000004,-8.8,1.4000000000000001
32,-3.5,-8.9,1.5
48,-3.5,-9.0,1.4000000000000001
64,-3.5,-9.0,1.3
80,-3.5,-9.0,1.3
96,-3.5,-8.9,1.2000000000000002
112,-3.5,-8.9,1.1
128,-3.6,-9.0,1.0
144,-3.5,-8.9,1.1
160,-3.5,-9.0,1.1
176,-3.3000000000000003,-9.0,1.1
192,-3.3000000000000003,-9.0,1.1
208,-3.2,-9.0,1.0
224,-3.2,-9.0,1.1
240,-3.2,-9.1,1.1
256,-3.2,-9.1,1.1
272,-3.3000000000000003,-9.0,1.2000000000000002
288,-3.3000000000000003,-9.0,1.2000000000000002
304,-3.3000000000000003,-9.0,1.2000000000000002
320,-3.2,-9.0,1.3
336,-3.2,-9.0,1.3
352,-3.1,-9.0,1.3
368,-3.1,-9.0,1.3
384,-3.1,-9.0,1.3
400,-3.1,-9.0,1.4000000000000001
416,-3.1,-9.0,1.4000000000000001
432,-3.1,-9.0,1.4000000000000001
448,-3.1,-9.0,1.4000000000000001
464,-3.1,-9.0,1.4000000000000001
480,-3.1,-9.0,1.4000000000000001
496,-3.1,-9.0,1.4000000000000001
512,-3.1,-9.0,1.3
528,-3.1,-9.0,1.3
544,-3.1,-8.9,1.3
560,-3.2,-9.0,1.4000000000000001
576,-3.3000000000000003,-9.0,1.4000000000000001
592,-3.3000000000000003,-9.0,1.4000000000000001
608,-3.4000000000000004,-9.0,1.4000000000000001
624,-3.4000000000000004,-8.9,1.4000000000000001
640,-3.5,-8.8,1.5
656,-3.3000000000000003,-8.700000000000001,1.6
672,-3.2,-8.6,1.6
688,-3.3000000000000003,-8.8,1.5
704,-3.4000000000000004,-9.0,1.5
720,-3.4000000000000004,-9.0,1.4000000000000001
736,-3.4000000000000004,-8.9,1.3
752,-3.4000000000000004,-8.9,1.3
768,-3.3000000000000003,-9.0,1.3
784,-3.1,-9.0,1.3
800,-3.2,-9.1,1.3
816,-3.2,-9.1,1.3
832,-3.2,-9.1,1.3
848,-3.2,-9.1,1.3
864,-3.3000000000000003,-9.1,1.4000000000000001
880,-3.4000000000000004,-9.0,1.4000000000000001
896,-3.4000000000000004,-8.9,1.3
912,-3.3000000000000003,-8.9,1.4000000000000001
928,-3.2,-8.9,1.4000000000000001
944,-3.2,-9.0,1.5
960,-3.3000000000000003,-9.0,1.5
976,-3.4000000000000004,-8.8,1.6
992,-3.4000000000000004,-8.8,1.6
1008,-3.5,-8.6,1.6
1024,-3.5,-8.5,1.7000000000000002
1040,-3.6,-8.5,1.8
1056,-3.7,-8.700000000000001,1.9000000000000001
1072,-3.7,-8.8,1.9000000000000001
1088,-3.7,-8.700000000000001,1.9000000000000001
1104,-3.8000000000000003,-8.6,1.9000000000000001
1120,-3.9000000000000004,-8.5,1.9000000000000001
1136,-4.1000000000000005,-8.6,2.0
1152,-4.3,-8.8,2.0
1168,-4.2,-8.9,2.0
1184,-4.0,-8.700000000000001,1.9000000000000001
1200,-3.9000000000000004,-8.700000000000001,2.0
1216,-4.0,-8.700000000000001,2.0
1232,-4.0,-8.5,2.0
1248,-4.0,-8.6,1.9000000000000001
1264,-4.0,-8.700000000000001,2.0
1280,-3.9000000000000004,-8.6,1.9000000000000001
1296,-3.9000000000000004,-8.5,2.0
1312,-4.0,-8.5,2.0
1328,-4.1000000000000005,-8.6,2.1
1344,-4.0,-8.5,2.0
1360,-4.0,-8.5,2.0
1376,-4.0,-8.6,2.0
1392,-4.0,-8.6,2.0
1408,-4.0,-8.5,1.9000000000000001
1424,-3.9000000000000004,-8.5,1.9000000000000001
1440,-3.8000000000000003,-8.5,1.9000000000000001
1456,-3.8000000000000003,-8.700000000000001,1.9000000000000001
1472,-3.8000000000000003,-8.700000000000001,1.9000000000000001
1488,-3.8000000000000003,-8.8,1.8
1504,-3.7,-8.8,1.7000000000000002
1520,-3.6,-8.8,1.7000000000000002
1536,-3.5,-8.8,1.7000000000000002
1552,-3.4000000000000004,-8.8,1.7000000000000002
1568,-3.4000000000000004,-8.8,1.8
1584,-3.4000000000000004,-8.8,1.8
1600,-3.4000000000000004,-8.8,1.8
1616,-3.5,-8.700000000000001,2.0
1632,-3.7,-8.6,1.9000000000000001
1648,-3.7,-8.6,1.8
1664,-3.6,-8.6,1.7000000000000002
1680,-3.6,-8.6,1.8
1696,-3.6,-8.6,1.9000000000000001
1712,-3.5,-8.6,2.0
1728,-3.5,-8.700000000000001,1.9000000000000001
1744,-3.5,-8.8,1.9000000000000001
1760,-3.6,-8.8,1.9000000000000001
1776,-3.6,-8.8,1.9000000000000001
1792,-3.6,-8.8,1.9000000000000001
1808,-3.6,-8.8,1.8
1824,-3.7,-8.8,1.7000000000000002
1840,-3.8000000000000003,-8.8,1.7000000000000002
1856,-3.8000000000000003,-8.700000000000001,1.8
1872,-3.9000000000000004,-8.6,1.9000000000000001
1888,-3.9000000000000004,-8.5,2.0
1904,-3.9000000000000004,-8.5,2.0
1920,-4.1000000000000005,-8.5,2.1
1936,-4.3,-8.5,2.2
1952,-4.4,-8.5,2.2
1968,-4.5,-8.5,2.2
1984,-4.4,-8.5,2.2
2000,-4.4,-8.700000000000001,2.1
2016,-4.2,-8.8,2.1
2032,-4.2,-8.8,2.3000000000000003
2048,-4.1000000000000005,-8.8,2.5
2064,-3.8000000000000003,-8.6,2.4000000000000004
2080,-3.8000000000000003,-8.6,2.2
2096,-3.6,-8.6,2.3000000000000003
2112,-3.3000000000000003,-8.700000000000001,2.3000000000000003
2128,-3.1,-8.8,2.3000000000000003
2144,-2.9000000000000004,-8.8,2.2
2160,-2.9000000000000004,-8.8,2.2
2176,-2.6,-8.6,2.2
2192,-2.6,-8.6,2.2
2208,-2.7,-8.700000000000001,2.3000000000000003
2224,-2.7,-8.8,2.3000000000000003
2240,-2.7,-9.0,2.1
2256,-2.8000000000000003,-9.0,2.1
2272,-2.8000000000000003,-8.8,2.2
2288,-2.7,-8.6,2.5
2304,-2.7,-8.6,2.7
2320,-2.9000000000000004,-8.700000000000001,2.6
2336,-3.0,-8.8,2.4000000000000004
2352,-3.0,-8.9,2.2
2368,-3.1,-9.1,2.3000000000000003
2384,-3.0,-9.1,2.5
2400,-2.9000000000000004,-9.1,2.6
2416,-2.8000000000000003,-9.1,2.5
2432,-2.7,-9.1,2.4000000000000004
2448,-2.5,-9.0,2.4000000000000004
2464,-2.4000000000000004,-9.1,2.4000000000000004
2480,-2.3000000000000003,-9.3,2.5
2496,-2.2,-9.200000000000001,2.4000000000000004
2512,-2.3000000000000003,-9.1,2.3000000000000003
2528,-2.4000000000000004,-9.1,2.2
2544,-2.4000000000000004,-9.0,2.2
2560,-2.2,-9.1,2.1
2576,-1.9000000000000001,-9.1,2.1
2592,-1.9000000000000001,-9.1,2.1
2608,-1.6,-9.1,2.1
2624,-1.5,-9.1,2.3000000000000003
2640,-1.5,-9.1,2.5
2656,-1.5,-9.1,2.5
2672,-1.4000000000000001,-8.9,2.3000000000000003
2688,-1.3,-8.9,2.0
2704,-1.4000000000000001,-9.0,1.7000000000000002
2720,-1.3,-9.1,1.5
2736,-1.2000000000000002,-8.9,1.6
2752,-1.0,-8.6,1.5
2768,-1.0,-8.5,2.1
2784,-0.6000000000000001,-8.200000000000001,3.8000000000000003
2800,0.2,-7.6000000000000005,4.800000000000001
2816,0.1,-7.5,3.7
2832,-0.6000000000000001,-7.7,2.3000000000000003
2848,-1.7000000000000002,-8.200000000000001,2.3000000000000003
2864,-2.4000000000000004,-8.5,2.4000000000000004
2880,-2.0,-8.4,2.9000000000000004
2896,-1.3,-8.0,3.7
2912,-1.4000000000000001,-7.1000000000000005,3.7
2928,-1.9000000000000001,-5.9,4.2
2944,-2.8000000000000003,-6.0,4.4
2960,-4.0,-7.300000000000001,3.2
2976,-3.6,-7.4,4.0
2992,-3.6,-7.4,4.0
3008,-4.0,-6.800000000000001,5.300000000000001
3024,-5.0,-5.800000000000001,5.800000000000001
3040,-5.1000000000000005,-4.5,6.1000000000000005
3056,-5.800000000000001,-5.6000000000000005,5.800000000000001
3072,-7.6000000000000005,-7.300000000000001,5.300000000000001
3088,-9.200000000000001,-8.0,5.0
3104,-8.200000000000001,-7.7,5.6000000000000005
3120,-6.9,-6.5,6.5
3136,-6.800000000000001,-5.2,6.6000000000000005
3152,-7.5,-4.7,6.800000000000001
3168,-8.3,-4.9,7.2
3184,-9.5,-5.300000000000001,7.4
3200,-10.4,-6.2,7.4
3216,-9.9,-7.5,7.300000000000001
3232,-9.1,-8.1,7.2
3248,-9.1,-6.2,7.300000000000001
3264,-9.3,-3.2,7.800000000000001
3280,-8.8,-0.5,7.7
3296,-9.1,0.1,8.1
3312,-11.200000000000001,-1.9000000000000001,9.3
3328,-12.9,-5.2,8.3
3344,-13.100000000000001,-7.800000000000001,5.9
3360,-11.100000000000001,-9.200000000000001,4.6000000000000005
3376,-8.3,-8.9,6.4
3392,-8.3,-8.9,6.4
3408,-8.0,-7.1000000000000005,6.0
3424,-9.3,-5.2,5.2
3440,-9.5,-3.9000000000000004,4.6000000000000005
3456,-6.800000000000001,-3.6,4.3
3472,-3.0,-3.3000000000000003,3.6
3488,-0.8,-1.9000000000000001,2.8000000000000003
3504,-0.6000000000000001,-0.4,2.7
3520,-1.7000000000000002,0.8,3.3000000000000003
3536,-3.7,2.6,3.1
3552,-7.0,4.3,3.1
3568,-11.100000000000001,5.9,2.6
3584,-14.100000000000001,7.2,0.4
3600,-15.4,7.2,-0.30000000000000004
3616,-14.3,5.6000000000000005,1.5
3632,-10.700000000000001,3.8000000000000003,3.4000000000000004
3648,-6.800000000000001,2.5,4.3
3664,-4.0,1.6,4.1000000000000005
3680,-1.6,0.4,3.0
3696,0.30000000000000004,-2.1,2.3000000000000003
3712,1.2000000000000002,-3.9000000000000004,1.7000000000000002
3728,0.8,-4.2,0.2
3744,-0.4,-3.5,-2.0
3760,-1.6,-3.0,-4.6000000000000005
3776,-2.3000000000000003,-3.4000000000000004,-6.7
3792,-2.3000000000000003,-3.4000000000000004,-6.7
3808,-2.4000000000000004,-4.2,-9.3
3824,-1.2000000000000002,-3.1,-12.700000000000001
3840,-0.30000000000000004,0.0,-15.3
3856,-0.4,3.7,-17.400000000000002
3872,0.5,7.800000000000001,-21.0
3888,4.7,13.600000000000001,-27.3
3904,11.0,20.900000000000002,-29.200000000000003
3920,15.3,31.200000000000003,-22.400000000000002
3936,11.8,37.6,-13.9
3952,1.3,36.1,-10.600000000000001
3968,-1.7000000000000002,25.0,-12.700000000000001
3984,2.6,11.600000000000001,-7.300000000000001
4000,4.6000000000000005,4.3,-4.0
4016,5.0,3.4000000000000004,-3.7
4032,4.800000000000001,5.9,-4.4
4048,3.8000000000000003,3.7,-4.2
4064,2.6,1.0,-2.8000000000000003
4080,0.1,1.9000000000000001,-2.7
4096,-2.2,3.4000000000000004,-3.6
4112,-2.7,3.3000000000000003,-3.8000000000000003
4128,-1.9000000000000001,2.2,-3.8000000000000003
4144,-0.1,1.9000000000000001,-4.4
4160,1.9000000000000001,3.4000000000000004,-4.800000000000001
4176,2.3000000000000003,5.1000000000000005,-4.0
4192,2.3000000000000003,5.1000000000000005,-4.0
4208,0.5,3.7,-3.5
4224,-2.1,1.0,-3.1
4240,-5.4,-0.30000000000000004,-3.8000000000000003
4256,-7.800000000000001,-0.6000000000000001,-4.3
4272,-8.9,-1.5,-4.2
4288,-9.5,-2.8000000000000003,-4.6000000000000005
4304,-10.8,-4.2,-5.7
4320,-11.9,-4.2,-7.0
4336,-12.0,-3.3000000000000003,-7.300000000000001
4352,-11.9,-3.0,-7.1000000000000005
4368,-12.100000000000001,-3.3000000000000003,-7.1000000000000005
4384,-12.200000000000001,-2.9000000000000004,-6.9
4400,-10.700000000000001,-1.5,-6.300000000000001
4416,-8.4,-0.2,-5.4
4432,-8.3,-0.2,-5.300000000000001
4448,-9.4,-1.8,-5.1000000000000005
4464,-8.8,-4.7,-5.4
4480,-6.800000000000001,-6.800000000000001,-4.800000000000001
4496,-5.300000000000001,-7.7,-3.9000000000000004
4512,-5.300000000000001,-8.3,-4.0
4528,-5.7,-8.0,-4.2
4544,-5.0,-7.9,-2.2
4560,-5.6000000000000005,-7.7,-1.8
4576,-6.4,-7.5,-3.3000000000000003
4592,-6.4,-7.5,-3.3000000000000003
4608,-6.2,-7.1000000000000005,-2.8000000000000003
4624,-5.4,-7.1000000000000005,-2.3000000000000003
4640,-4.4,-8.0,-2.6
4656,-3.9000000000000004,-8.3,-3.1
4672,-3.9000000000000004,-7.7,-3.1
4688,-4.1000000000000005,-6.5,-3.0
4704,-4.1000000000000005,-5.2,-2.6
4720,-4.3,-4.4,-2.1
4736,-4.7,-4.2,-2.0
4752,-5.5,-4.1000000000000005,-2.3000000000000003
4768,-6.6000000000000005,-4.3,-2.2
4784,-7.4,-4.800000000000001,-2.6
4800,-7.6000000000000005,-4.9,-1.7000000000000002
4816,-8.0,-4.2,-0.30000000000000004
4832,-8.8,-5.6000000000000005,-2.2
4848,-7.800000000000001,-6.0,-2.8000000000000003
4864,-6.800000000000001,-5.0,-1.5
4880,-6.4,-4.5,-1.5
4896,-5.7,-4.6000000000000005,-1.8
4912,-5.300000000000001,-4.7,-1.3
4928,-5.5,-4.7,-1.0
4944,-5.800000000000001,-4.800000000000001,-1.3
4960,-5.6000000000000005,-5.300000000000001,-0.6000000000000001
4976,-5.1000000000000005,-6.1000000000000005,-0.4
4992,-5.1000000000000005,-6.1000000000000005,-0.4
5008,-4.1000000000000005,-7.0,-0.7000000000000001
5024,-3.0,-7.7,-0.7000000000000001
5040,-1.4000000000000001,-8.9,0.30000000000000004
5056,-0.8,-11.4,2.6
5072,-1.2000000000000002,-13.9,3.6
5088,-3.4000000000000004,-15.700000000000001,1.0
5104,-5.2,-17.6,-3.2
5120,-5.9,-16.2,-3.1
5136,-4.800000000000001,-9.600000000000001,-1.1
5152,-4.4,-7.4,0.6000000000000001
5168,-3.6,-7.5,1.5
5184,-3.6,-9.600000000000001,0.6000000000000001
5200,-4.6000000000000005,-13.100000000000001,0.9
5216,-4.9,-16.8,0.0
5232,-3.8000000000000003,-20.5,-1.0
5248,-4.1000000000000005,-18.8,-1.7000000000000002
5264,-5.1000000000000005,-9.700000000000001,1.4000000000000001
5280,-3.8000000000000003,-3.5,1.0
5296,-1.1,-1.7000000000000002,0.1
5312,-0.7000000000000001,-4.4,2.6
5328,-1.4000000000000001,-8.1,2.1
5344,-2.8000000000000003,-10.200000000000001,0.4
5360,-2.9000000000000004,-10.8,0.6000000000000001
5376,-2.9000000000000004,-10.8,0.6000000000000001
5392,-2.3000000000000003,-10.200000000000001,1.4000000000000001
5408,-1.9000000000000001,-9.1,0.8
5424,-2.6,-8.6,0.1
5440,-4.5,-9.0,0.5
5456,-6.0,-9.9,0.5
5472,-6.5,-10.200000000000001,0.2
5488,-5.9,-9.9,-0.1
5504,-5.1000000000000005,-9.700000000000001,-0.6000000000000001
5520,-4.7,-9.200000000000001,-0.5
5536,-4.5,-8.700000000000001,-0.5
5552,-4.800000000000001,-8.4,-0.5
5568,-5.2,-8.200000000000001,-0.1
5584,-5.2,-8.0,-0.30000000000000004
5600,-5.1000000000000005,-7.7,-0.30000000000000004
5616,-5.300000000000001,-7.6000000000000005,-0.2
5632,-5.6000000000000005,-7.800000000000001,-0.2
5648,-5.800000000000001,-8.200000000000001,-0.30000000000000004
5664,-5.6000000000000005,-8.3,-0.6000000000000001
5680,-5.300000000000001,-8.0,-0.6000000000000001
5696,-4.800000000000001,-7.7,-0.30000000000000004
5712,-4.5,-7.9,-0.30000000000000004
5728,-4.5,-8.1,-0.2
5744,-4.4,-8.3,-0.4
5760,-4.4,-8.3,-0.4
5776,-4.1000000000000005,-8.4,-0.7000000000000001
5792,-3.9000000000000004,-8.6,-0.7000000000000001
5808,-4.0,-8.700000000000001,-0.7000000000000001
5824,-4.1000000000000005,-8.8,-0.6000000000000001
5840,-4.1000000000000005,-9.0,-0.5
5856,-4.0,-9.1,-0.6000000000000001
5872,-4.2,-9.0,-0.5
5888,-4.0,-8.8,-0.6000000000000001
5904,-4.0,-8.700000000000001,-0.4
5920,-4.0,-8.8,-0.6000000000000001
5936,-4.1000000000000005,-8.9,-0.6000000000000001
5952,-4.3,-8.700000000000001,-0.2
5968,-4.6000000000000005,-8.4,0.1
5984,-4.7,-8.3,-0.4
6000,-4.800000000000001,-8.3,-0.5
6016,-5.0,-8.4,-0.5
6032,-5.2,-8.4,-0.5
6048,-4.9,-8.6,-0.6000000000000001
6064,-4.6000000000000005,-8.5,-0.5
6080,-4.5,-8.4,-0.5
6096,-4.7,-8.3,-0.5
6112,-4.9,-8.3,-0.7000000000000001
6128,-5.1000000000000005,-8.3,-0.5
6144,-5.2,-8.3,-0.4
6160,-4.9,-8.4,-0.6000000000000001
6176,-4.9,-8.4,-0.6000000000000001
6192,-5.0,-8.5,-0.7000000000000001
6208,-5.2,-8.4,-0.4
6224,-5.2,-8.200000000000001,-0.4
6240,-4.9,-8.200000000000001,-0.4
6256,-4.800000000000001,-8.200000000000001,-0.6000000000000001
6272,-5.0,-8.200000000000001,-0.6000000000000001
6288,-5.1000000000000005,-8.200000000000001,-0.4
6304,-4.800000000000001,-8.5,-0.6000000000000001
6320,-4.7,-8.5,-0.5
6336,-4.800000000000001,-8.4,-0.5
6352,-4.7,-8.3,-0.4
6368,-4.6000000000000005,-8.200000000000001,-0.5
6384,-4.7,-8.3,-0.6000000000000001
6400,-4.9,-8.3,-0.5
6416,-5.1000000000000005,-8.4,-0.5
6432,-5.2,-8.4,-0.6000000000000001
6448,-5.2,-8.4,-0.5
6464,-5.1000000000000005,-8.200000000000001,-0.4
6480,-5.0,-8.200000000000001,-0.7000000000000001
6496,-5.0,-8.3,-0.5
6512,-5.1000000000000005,-8.3,-0.6000000000000001
6528,-5.2,-8.4,-0.6000000000000001
6544,-5.2,-8.4,-0.6000000000000001
6560,-5.300000000000001,-8.3,-0.5
6576,-5.300000000000001,-8.3,-0.5
6592,-5.300000000000001,-8.200000000000001,-0.5
6608,-5.300000000000001,-8.200000000000001,-0.6000000000000001
6624,-5.2,-8.200000000000001,-0.7000000000000001
6640,-5.1000000000000005,-8.1,-0.6000000000000001
6656,-5.1000000000000005,-8.1,-0.5
6672,-5.2,-8.1,-0.5
6688,-5.1000000000000005,-8.1,-0.6000000000000001
6704,-5.1000000000000005,-8.1,-0.6000000000000001
6720,-5.2,-8.200000000000001,-0.7000000000000001
6736,-5.300000000000001,-8.3,-0.7000000000000001
6752,-5.4,-8.3,-0.8
6768,-5.4,-8.200000000000001,-0.6000000000000001
6784,-5.300000000000001,-8.200000000000001,-0.6000000000000001
6800,-5.300000000000001,-8.1,-0.8
6816,-5.300000000000001,-8.200000000000001,-0.7000000000000001
6832,-5.5,-8.200000000000001,-0.6000000000000001
6848,-5.5,-8.4,-0.8
6864,-5.800000000000001,-8.5,-0.9
6880,-6.0,-8.4,-0.5
6896,-5.9,-8.200000000000001,-1.1
6912,-5.5,-7.800000000000001,-1.5
6928,-5.0,-7.4,-1.4000000000000001
6944,-5.2,-7.4,-1.2000000000000002
6960,-5.4,-7.6000000000000005,-1.5
6976,-5.4,-7.6000000000000005,-1.5
6992,-5.300000000000001,-7.800000000000001,-1.9000000000000001
7008,-5.0,-7.800000000000001,-1.8
7024,-4.9,-7.9,-1.6
7040,-5.0,-8.0,-1.7000000000000002
7056,-5.1000000000000005,-8.4,-1.8
7072,-5.1000000000000005,-8.9,-1.7000000000000002
7088,-5.4,-9.1,-1.3
7104,-6.0,-9.0,-1.1
7120,-6.5,-8.6,-1.1
7136,-6.1000000000000005,-8.200000000000001,-1.0
7152,-5.5,-8.0,-0.8
7168,-5.300000000000001,-8.200000000000001,-0.30000000000000004
7184,-5.4,-8.5,0.1
7200,-5.300000000000001,-8.4,0.4
7216,-5.0,-8.3,0.6000000000000001
7232,-4.4,-8.200000000000001,0.7000000000000001
7248,-4.1000000000000005,-8.200000000000001,0.6000000000000001
7264,-4.3,-8.3,0.6000000000000001
7280,-4.6000000000000005,-8.4,0.8
7296,-4.9,-8.6,0.8
7312,-4.9,-8.6,0.8
7328,-4.800000000000001,-8.5,0.7000000000000001
7344,-4.4,-8.5,0.6000000000000001
7360,-3.9000000000000004,-8.8,0.7000000000000001
7376,-3.9000000000000004,-8.8,0.7000000000000001
7392,-3.6,-8.700000000000001,1.0
7408,-3.4000000000000004,-8.4,1.4000000000000001
7424,-3.5,-8.1,1.7000000000000002
7440,-3.8000000000000003,-7.9,1.5
7456,-4.1000000000000005,-7.9,1.4000000000000001
7472,-4.2,-7.9,1.2000000000000002
7488,-4.2,-7.800000000000001,1.4000000000000001
7504,-4.2,-7.7,1.4000000000000001
7520,-3.6,-7.4,1.6
7536,-3.0,-7.300000000000001,2.1
7552,-2.8000000000000003,-7.800000000000001,2.3000000000000003
7568,-2.7,-7.9,2.1
7584,-2.4000000000000004,-7.4,2.5
7600,-2.1,-6.4,3.0
7616,-1.9000000000000001,-6.300000000000001,3.5
7632,-2.0,-6.6000000000000005,4.0
7648,-2.3000000000000003,-6.5,4.3
7664,-1.9000000000000001,-6.1000000000000005,4.4
7680,-1.5,-5.7,4.6000000000000005
7696,-1.7000000000000002,-5.5,4.800000000000001
7712,-1.6,-5.800000000000001,4.9
7728,-0.6000000000000001,-5.6000000000000005,5.1000000000000005
7744,0.1,-5.0,5.4
7760,0.2,-5.4,5.4
7776,0.2,-5.4,5.4
7792,-0.1,-6.800000000000001,5.4
7808,0.30000000000000004,-8.4,5.5
7824,0.9,-9.5,5.7
7840,0.8,-10.100000000000001,5.2
7856,0.9,-11.0,4.9
7872,1.4000000000000001,-11.8,5.9
7888,1.2000000000000002,-11.0,6.5
7904,0.30000000000000004,-10.0,7.0
7920,-0.4,-8.3,7.1000000000000005
7936,-0.7000000000000001,-6.300000000000001,6.800000000000001
7952,-1.0,-5.1000000000000005,7.0
7968,-0.9,-4.6000000000000005,6.7
7984,-0.8,-4.3,6.6000000000000005
8000,-0.7000000000000001,-4.0,6.4
8016,-0.6000000000000001,-3.4000000000000004,7.0
8032,-0.7000000000000001,-3.6,6.7
8048,-0.30000000000000004,-3.8000000000000003,6.9
8064,0.5,-4.1000000000000005,6.800000000000001
8080,1.3,-3.8000000000000003,7.0
8096,1.4000000000000001,-3.0,7.5
8112,1.9000000000000001,-2.5,7.9
8128,2.2,-2.1,8.6
8144,1.8,-2.3000000000000003,8.6
8160,1.4000000000000001,-3.3000000000000003,8.5
8176,1.4000000000000001,-3.3000000000000003,8.5
8192,1.3,-2.6,8.6
8208,1.5,-1.8,8.700000000000001
8224,1.8,-1.6,9.0
8240,3.5,-1.0,10.100000000000001
8256,4.4,-0.5,11.0
8272,2.5,-2.7,15.3
8288,0.2,-10.0,6.2
8304,-5.7,-0.9,18.7
8320,2.6,-0.6000000000000001,6.7
8336,-1.1,0.0,11.4
8352,1.3,0.0,10.100000000000001
8368,6.5,-1.9000000000000001,9.600000000000001
8384,6.300000000000001,-5.0,9.4
8400,-3.3000000000000003,-0.5,9.5
8416,-6.800000000000001,3.7,9.600000000000001
8432,-3.9000000000000004,2.7,9.600000000000001
8448,-0.8,0.6000000000000001,9.600000000000001
8464,-0.1,0.2,9.700000000000001
8480,-0.1,0.2,9.8
8496,0.0,0.2,9.700000000000001
8512,0.0,0.2,9.700000000000001
8528,0.0,0.1,9.700000000000001
8544,0.0,0.1,9.700000000000001
8560,0.0,0.1,9.700000000000001
8576,0.0,0.1,9.700000000000001
8592,0.0,0.1,9.700000000000001
8608,0.0,0.1,9.700000000000001
8624,0.0,0.2,9.700000000000001
8640,0.0,0.1,9.700000000000001
8656,0.0,0.1,9.700000000000001
8672,0.0,0.2,9.700000000000001
8688,0.0,0.1,9.700000000000001
8704,0.0,0.1,9.700000000000001
8720,0.0,0.1,9.700000000000001
8736,0.0,0.1,9.700000000000001
8752,0.0,0.1,9.700000000000001
8768,0.0,0.1,9.700000000000001
8784,0.0,0.2,9.700000000000001
8800,0.0,0.1,9.700000000000001
8816,0.1,0.1,9.700000000000001
8832,0.1,0.1,9.700000000000001
8848,0.2,0.1,9.700000000000001
8864,0.5,0.1,9.700000000000001
8880,0.30000000000000004,0.1,9.700000000000001
8896,0.4,0.1,9.700000000000001
8912,0.30000000000000004,0.1,9.700000000000001
8928,0.2,0.1,9.700000000000001
8944,0.1,0.1,9.700000000000001
8960,0.1,0.1,9.700000000000001
8976,0.1,0.1,9.700000000000001
8992,0.1,0.1,9.700000000000001
9008,0.1,0.1,9.700000000000001
9024,0.0,0.1,9.700000000000001
9040,0.1,0.1,9.700000000000001
9056,0.1,0.1,9.700000000000001
9072,0.1,0.1,9.700000000000001
9088,0.1,0.1,9.700000000000001
9104,0.2,0.1,9.700000000000001
9120,0.0,0.1,9.700000000000001
9136,0.0,0.1,9.700000000000001
9152,0.0,0.1,9.700000000000001
9168,0.1,0.1,9.700000000000001
9184,0.1,0.1,9.700000000000001
9200,0.0,0.2,9.700000000000001
9216,0.1,0.1,9.700000000000001
9232,0.1,0.2,9.700000000000001
9248,0.2,0.2,9.700000000000001
9264,0.2,0.2,9.700000000000001
9280,0.1,0.2,9.700000000000001
9296,0.1,0.2,9.700000000000001
9312,0.1,0.2,9.700000000000001
9328,0.2,0.2,9.700000000000001
9344,0.0,0.2,9.700000000000001
9360,0.1,0.2,9.700000000000001
9376,0.1,0.2,9.700000000000001
9392,0.2,0.2,9.700000000000001
9408,0.1,0.30000000000000004,9.700000000000001
9424,0.0,0.2,9.700000000000001
9440,0.0,0.2,9.700000000000001
9456,0.0,0.2,9.700000000000001
9472,0.2,0.2,9.700000000000001
9488,0.2,0.2,9.700000000000001
9504,-0.1,0.1,9.700000000000001
9520,-0.1,0.1,9.700000000000001
9536,0.0,0.1,9.700000000000001
9552,0.1,0.2,9.700000000000001
9568,0.0,0.1,9.700000000000001
9584,-0.1,0.1,9.700000000000001
9600,-0.30000000000000004,0.0,9.700000000000001
9616,-0.1,0.1,9.700000000000001
9632,0.0,0.1,9.700000000000001
9648,-0.1,0.1,9.700000000000001
9664,-0.1,0.1,9.700000000000001
9680,-0.1,0.1,9.700000000000001
9696,-0.1,0.1,9.700000000000001
9712,-0.1,0.1,9.700000000000001
9728,0.0,0.1,9.700000000000001
9744,0.0,0.1,9.700000000000001
9760,0.0,0.1,9.700000000000001
9776,0.0,0.1,9.700000000000001
9792,-0.1,0.1,9.700000000000001
9808,0.0,0.1,9.700000000000001
9824,0.0,0.1,9.700000000000001
9840,0.0,0.1,9.700000000000001
9856,0.1,0.2,9.700000000000001
9872,0.1,0.2,9.700000000000001
9888,0.1,0.2,9.700000000000001
9904,0.1,0.2,9.700000000000001
9920,0.1,0.2,9.700000000000001
9936,0.1,0.2,9.700000000000001
9952,0.1,0.2,9.700000000000001
9968,0.1,0.2,9.700000000000001
9984,0.1,0.2,9.700000000000001
