timestamp,accX,accY,accZ
0,-4.800000000000001,-4.2,7.2
16,-4.800000000000001,-4.2,7.2
32,-4.800000000000001,-4.2,7.2
48,-4.800000000000001,-4.2,7.2
64,-4.800000000000001,-4.2,7.2
80,-4.800000000000001,-4.2,7.2
96,-4.800000000000001,-4.2,7.2
112,-4.800000000000001,-4.2,7.2
128,-4.800000000000001,-4.2,7.2
144,-4.800000000000001,-4.2,7.2
160,-4.800000000000001,-4.2,7.2
176,-4.800000000000001,-4.2,7.2
192,-4.800000000000001,-4.2,7.2
208,-4.800000000000001,-4.2,7.2
224,-4.800000000000001,-4.2,7.2
240,-4.800000000000001,-4.2,7.2
256,-4.800000000000001,-4.2,7.2
272,-4.800000000000001,-4.2,7.2
288,-4.800000000000001,-4.2,7.2
304,-4.800000000000001,-4.2,7.2
320,-4.800000000000001,-4.2,7.2
336,-4.800000000000001,-4.2,7.2
352,-4.800000000000001,-4.2,7.2
368,-4.800000000000001,-4.2,7.2
384,-4.800000000000001,-4.2,7.2
400,-4.800000000000001,-4.2,7.2
416,-4.800000000000001,-4.2,7.2
432,-4.800000000000001,-4.2,7.2
448,-4.800000000000001,-4.2,7.2
464,-4.800000000000001,-4.2,7.2
480,-4.800000000000001,-4.2,7.2
496,-4.800000000000001,-4.2,7.2
512,-4.800000000000001,-4.2,7.2
528,-4.800000000000001,-4.2,7.2
544,-4.800000000000001,-4.2,7.2
560,-4.800000000000001,-4.2,7.2
576,-4.800000000000001,-4.2,7.2
592,-4.800000000000001,-4.2,7.2
608,-4.800000000000001,-4.2,7.2
624,-4.800000000000001,-4.2,7.2
640,-4.800000000000001,-4.2,7.2
656,-4.800000000000001,-4.2,7.2
672,-4.800000000000001,-4.2,7.2
688,-4.800000000000001,-4.2,7.2
704,-4.800000000000001,-4.2,7.2
720,-4.800000000000001,-4.2,7.2
736,-4.800000000000001,-4.2,7.2
752,-4.800000000000001,-4.2,7.2
768,-4.800000000000001,-4.2,7.2
784,-4.800000000000001,-4.2,7.2
800,-4.800000000000001,-4.2,7.2
816,-4.800000000000001,-4.2,7.2
832,-4.800000000000001,-4.2,7.2
848,-4.800000000000001,-4.2,7.2
864,-4.800000000000001,-4.2,7.2
880,-4.800000000000001,-4.2,7.2
896,-4.800000000000001,-4.2,7.2
912,-4.800000000000001,-4.2,7.2
928,-4.800000000000001,-4.2,7.2
944,-4.800000000000001,-4.2,7.2
960,-4.800000000000001,-4.2,7.2
976,-4.800000000000001,-4.2,7.2
992,-4.800000000000001,-4.2,7.2
1008,-4.800000000000001,-4.2,7.2
1024,-4.800000000000001,-4.2,7.2
1040,-4.800000000000001,-4.2,7.2
1056,-4.800000000000001,-4.2,7.2
1072,-4.800000000000001,-4.2,7.2
1088,-4.800000000000001,-4.2,7.2
1104,-4.800000000000001,-4.2,7.2
1120,-4.800000000000001,-4.2,7.2
1136,-4.800000000000001,-4.2,7.2
1152,-4.800000000000001,-4.2,7.2
1168,-4.800000000000001,-4.2,7.2
1184,-4.800000000000001,-4.2,7.2
1200,-4.800000000000001,-4.2,7.2
1216,-4.800000000000001,-4.2,7.2
1232,-4.800000000000001,-4.2,7.2
1248,-4.800000000000001,-4.2,7.2
1264,-4.800000000000001,-4.2,7.2
1280,-4.800000000000001,-4.2,7.2
1296,-4.800000000000001,-4.2,7.1000000000000005
1312,-4.800000000000001,-4.2,7.1000000000000005
1328,-4.800000000000001,-4.2,7.1000000000000005
1344,-4.800000000000001,-4.2,7.2
1360,-4.800000000000001,-4.2,7.2
1376,-4.800000000000001,-4.2,7.2
1392,-4.800000000000001,-4.2,7.2
1408,-4.800000000000001,-4.2,7.2
1424,-4.800000000000001,-4.2,7.2
1440,-4.800000000000001,-4.2,7.2
1456,-4.800000000000001,-4.2,7.2
1472,-4.800000000000001,-4.2,7.2
1488,-4.800000000000001,-4.2,7.2
1504,-4.800000000000001,-4.2,7.2
1520,-4.800000000000001,-4.2,7.2
1536,-4.800000000000001,-4.2,7.2
1552,-4.800000000000001,-4.2,7.2
1568,-4.800000000000001,-4.2,7.2
1584,-4.800000000000001,-4.2,7.2
1600,-4.800000000000001,-4.2,7.1000000000000005
1616,-4.800000000000001,-4.2,7.2
1632,-4.800000000000001,-4.2,7.2
1648,-4.800000000000001,-4.2,7.2
1664,-4.800000000000001,-4.2,7.2
1680,-4.800000000000001,-4.2,7.2
1696,-4.800000000000001,-4.2,7.2
1712,-4.800000000000001,-4.2,7.2
1728,-4.800000000000001,-4.2,7.2
1744,-4.800000000000001,-4.2,7.2
1760,-4.800000000000001,-4.2,7.2
1776,-4.800000000000001,-4.2,7.2
1792,-4.800000000000001,-4.2,7.2
1808,-4.800000000000001,-4.2,7.2
1824,-4.800000000000001,-4.2,7.2
1840,-4.800000000000001,-4.2,7.2
1856,-4.800000000000001,-4.2,7.2
1872,-4.800000000000001,-4.2,7.2
1888,-4.800000000000001,-4.2,7.2
1904,-4.800000000000001,-4.2,7.2
1920,-4.800000000000001,-4.2,7.2
1936,-4.800000000000001,-4.2,7.2
1952,-4.800000000000001,-4.2,7.2
1968,-4.800000000000001,-4.2,7.2
1984,-4.800000000000001,-4.2,7.2
2000,-4.800000000000001,-4.2,7.2
2016,-4.800000000000001,-4.2,7.2
2032,-4.800000000000001,-4.2,7.2
2048,-4.800000000000001,-4.2,7.2
2064,-4.800000000000001,-4.2,7.2
2080,-4.800000000000001,-4.2,7.2
2096,-4.800000000000001,-4.2,7.2
2112,-4.800000000000001,-4.2,7.2
2128,-4.800000000000001,-4.2,7.2
2144,-4.800000000000001,-4.2,7.2
2160,-4.800000000000001,-4.2,7.2
2176,-4.800000000000001,-4.2,7.2
2192,-4.800000000000001,-4.2,7.2
2208,-4.800000000000001,-4.2,7.2
2224,-4.800000000000001,-4.2,7.2
2240,-4.800000000000001,-4.2,7.2
2256,-4.800000000000001,-4.2,7.2
2272,-4.800000000000001,-4.2,7.2
2288,-4.800000000000001,-4.2,7.2
2304,-4.800000000000001,-4.2,7.1000000000000005
2320,-4.800000000000001,-4.2,7.2
2336,-4.800000000000001,-4.2,7.2
2352,-4.800000000000001,-4.2,7.2
2368,-4.800000000000001,-4.2,7.2
2384,-4.800000000000001,-4.2,7.2
2400,-4.800000000000001,-4.2,7.2
2416,-4.800000000000001,-4.2,7.2
2432,-4.800000000000001,-4.2,7.2
2448,-4.800000000000001,-4.2,7.2
2464,-4.800000000000001,-4.2,7.2
2480,-4.800000000000001,-4.2,7.2
2496,-4.800000000000001,-4.2,7.2
2512,-4.800000000000001,-4.2,7.2
2528,-4.800000000000001,-4.2,7.2
2544,-4.800000000000001,-4.2,7.2
2560,-4.800000000000001,-4.2,7.2
2576,-4.800000000000001,-4.2,7.2
2592,-4.800000000000001,-4.2,7.2
2608,-4.800000000000001,-4.2,7.2
2624,-4.800000000000001,-4.2,7.2
2640,-4.800000000000001,-4.2,7.2
2656,-4.800000000000001,-4.2,7.2
2672,-4.800000000000001,-4.2,7.2
2688,-4.800000000000001,-4.2,7.2
2704,-4.800000000000001,-4.2,7.2
2720,-4.800000000000001,-4.2,7.2
2736,-4.800000000000001,-4.2,7.2
2752,-4.800000000000001,-4.2,7.2
2768,-4.800000000000001,-4.2,7.2
2784,-4.800000000000001,-4.2,7.2
2800,-4.800000000000001,-4.2,7.2
2816,-4.800000000000001,-4.2,7.2
2832,-4.800000000000001,-4.2,7.2
2848,-4.800000000000001,-4.2,7.2
2864,-4.800000000000001,-4.2,7.2
2880,-4.800000000000001,-4.2,7.2
2896,-4.800000000000001,-4.2,7.2
2912,-4.800000000000001,-4.2,7.2
2928,-4.800000000000001,-4.2,7.2
2944,-4.800000000000001,-4.2,7.2
2960,-4.800000000000001,-4.3,7.2
2976,-4.800000000000001,-4.2,7.2
2992,-4.7,-4.2,7.1000000000000005
3008,-4.800000000000001,-4.2,7.1000000000000005
3024,-4.800000000000001,-4.2,7.1000000000000005
3040,-4.800000000000001,-4.2,7.1000000000000005
3056,-4.800000000000001,-4.2,7.2
3072,-4.800000000000001,-4.1000000000000005,7.2
3088,-4.9,-4.2,7.2
3104,-4.9,-4.2,7.2
3120,-4.800000000000001,-4.2,7.2
3136,-4.800000000000001,-4.2,7.2
3152,-4.800000000000001,-4.2,7.1000000000000005
3168,-4.800000000000001,-4.3,7.1000000000000005
3184,-4.7,-4.3,7.1000000000000005
3200,-4.7,-4.3,7.1000000000000005
3216,-4.7,-4.3,7.1000000000000005
3232,-4.7,-4.3,7.1000000000000005
3248,-4.800000000000001,-4.3,7.2
3264,-4.800000000000001,-4.3,7.1000000000000005
3280,-4.800000000000001,-4.2,7.1000000000000005
3296,-4.800000000000001,-4.2,7.1000000000000005
3312,-4.7,-4.2,7.0
3328,-4.7,-4.1000000000000005,7.0
3344,-4.7,-4.1000000000000005,7.1000000000000005
3360,-4.800000000000001,-4.1000000000000005,7.1000000000000005
3376,-4.800000000000001,-4.1000000000000005,7.1000000000000005
3392,-4.800000000000001,-4.1000000000000005,7.0
3408,-4.7,-4.1000000000000005,7.1000000000000005
3424,-4.7,-4.1000000000000005,7.1000000000000005
3440,-4.7,-4.1000000000000005,7.1000000000000005
3456,-4.7,-4.1000000000000005,7.1000000000000005
3472,-4.7,-4.1000000000000005,7.2
3488,-4.800000000000001,-4.2,7.300000000000001
3504,-4.800000000000001,-4.2,7.300000000000001
3520,-4.800000000000001,-4.2,7.300000000000001
3536,-4.800000000000001,-4.2,7.4
3552,-4.800000000000001,-4.1000000000000005,7.300000000000001
3568,-4.7,-4.1000000000000005,7.300000000000001
3584,-4.800000000000001,-4.1000000000000005,7.4
3600,-4.800000000000001,-4.1000000000000005,7.6000000000000005
3616,-4.800000000000001,-4.1000000000000005,7.6000000000000005
3632,-4.9,-4.0,7.6000000000000005
3648,-4.800000000000001,-4.0,7.6000000000000005
3664,-4.800000000000001,-3.8000000000000003,7.5
3680,-4.800000000000001,-3.8000000000000003,7.5
3696,-4.800000000000001,-3.8000000000000003,7.5
3712,-4.800000000000001,-3.8000000000000003,7.5
3728,-4.800000000000001,-3.8000000000000003,7.6000000000000005
3744,-4.800000000000001,-3.8000000000000003,7.6000000000000005
3760,-4.800000000000001,-3.8000000000000003,7.6000000000000005
3776,-4.800000000000001,-3.8000000000000003,7.6000000000000005
3792,-4.9,-3.8000000000000003,7.7
3808,-4.9,-3.7,7.7
3824,-5.0,-3.6,7.7
3840,-5.0,-3.6,7.7
3856,-5.0,-3.7,7.7
3872,-5.0,-3.7,7.7
3888,-5.0,-3.7,7.5
3904,-4.9,-3.6,7.4
3920,-4.9,-3.6,7.4
3936,-4.9,-3.5,7.4
3952,-4.9,-3.4000000000000004,7.300000000000001
3968,-5.0,-3.4000000000000004,7.300000000000001
3984,-5.0,-3.3000000000000003,7.300000000000001
4000,-5.0,-3.2,7.2
4016,-5.1000000000000005,-3.2,7.300000000000001
4032,-5.1000000000000005,-3.0,7.300000000000001
4048,-5.2,-3.1,7.300000000000001
4064,-5.4,-3.1,7.300000000000001
4080,-5.5,-2.8000000000000003,7.300000000000001
4096,-5.5,-2.8000000000000003,7.300000000000001
4112,-5.6000000000000005,-2.7,7.4
4128,-5.7,-2.7,7.5
4144,-5.7,-2.7,7.5
4160,-5.7,-2.8000000000000003,7.4
4176,-5.7,-2.8000000000000003,7.300000000000001
4192,-5.5,-2.8000000000000003,7.2
4208,-5.4,-2.6,7.300000000000001
4224,-5.5,-2.4000000000000004,7.6000000000000005
4240,-5.5,-2.4000000000000004,7.6000000000000005
4256,-5.300000000000001,-2.4000000000000004,7.5
4272,-5.2,-2.3000000000000003,7.4
4288,-4.7,-2.2,7.4
4304,-4.5,-2.2,7.6000000000000005
4320,-4.6000000000000005,-2.4000000000000004,7.7
4336,-4.4,-2.4000000000000004,7.6000000000000005
4352,-4.2,-2.6,7.4
4368,-4.0,-2.7,7.7
4384,-5.1000000000000005,-2.6,8.1
4400,-5.1000000000000005,-2.6,8.1
4416,-5.2,-2.1,7.7
4432,-5.2,-1.5,7.9
4448,-5.5,-1.3,8.1
4464,-5.5,-1.3,8.1
4480,-5.5,-1.6,8.1
4496,-5.4,-2.0,8.3
4512,-5.2,-2.5,8.0
4528,-4.9,-2.6,7.6000000000000005
4544,-4.6000000000000005,-2.7,7.300000000000001
4560,-4.4,-3.0,7.5
4576,-4.5,-3.5,8.0
4592,-4.7,-3.7,8.3
4608,-4.6000000000000005,-3.6,8.0
4624,-4.4,-3.6,7.6000000000000005
4640,-4.4,-3.6,7.6000000000000005
4656,-4.1000000000000005,-3.6,7.2
4672,-3.9000000000000004,-3.8000000000000003,7.4
4688,-4.1000000000000005,-3.6,7.6000000000000005
4704,-4.3,-3.6,7.9
4720,-4.6000000000000005,-3.4000000000000004,7.800000000000001
4736,-4.7,-3.0,7.9
4752,-4.800000000000001,-2.8000000000000003,7.9
4768,-4.800000000000001,-2.8000000000000003,7.9
4784,-4.800000000000001,-2.9000000000000004,8.0
4800,-4.7,-3.0,8.0
4816,-4.6000000000000005,-3.2,8.0
4832,-4.5,-3.3000000000000003,8.1
4848,-4.4,-3.3000000000000003,8.3
4864,-4.3,-3.3000000000000003,8.700000000000001
4880,-4.3,-3.3000000000000003,8.700000000000001
4896,-4.1000000000000005,-3.3000000000000003,8.700000000000001
4912,-3.9000000000000004,-3.3000000000000003,8.4
4928,-4.0,-2.9000000000000004,8.700000000000001
4944,-4.0,-2.9000000000000004,8.700000000000001
4960,-3.9000000000000004,-2.8000000000000003,8.200000000000001
4976,-3.8000000000000003,-2.9000000000000004,8.0
4992,-3.8000000000000003,-3.2,8.5
5008,-3.8000000000000003,-3.2,8.5
5024,-3.7,-3.2,8.5
5040,-3.7,-3.2,8.5
5056,-3.8000000000000003,-3.2,8.5
5072,-3.8000000000000003,-3.2,8.5
5088,-3.8000000000000003,-3.3000000000000003,8.700000000000001
5104,-3.8000000000000003,-3.4000000000000004,8.4
5120,-3.7,-3.7,7.800000000000001
5136,-3.6,-4.0,7.300000000000001
5152,-3.4000000000000004,-3.9000000000000004,7.2
5168,-3.4000000000000004,-3.9000000000000004,7.7
5184,-3.4000000000000004,-3.9000000000000004,8.200000000000001
5200,-3.4000000000000004,-4.1000000000000005,8.1
5216,-3.2,-3.9000000000000004,7.800000000000001
5232,-3.0,-3.8000000000000003,7.7
5248,-2.8000000000000003,-4.4,7.4
5264,-2.9000000000000004,-4.800000000000001,7.5
5280,-5.0,-1.9000000000000001,9.600000000000001
5296,-5.800000000000001,-1.0,9.8
5312,-5.0,-1.9000000000000001,9.1
5328,-4.5,-2.8000000000000003,8.700000000000001
5344,-4.800000000000001,-2.2,8.8
5360,-4.800000000000001,-2.2,8.8
5376,-5.0,-2.1,9.0
5392,-5.2,-2.6,8.8
5408,-5.2,-2.5,8.700000000000001
5424,-5.2,-2.5,8.700000000000001
5440,-5.2,-2.5,8.700000000000001
5456,-5.4,-1.9000000000000001,8.8
5472,-5.4,-1.0,8.200000000000001
5488,-5.1000000000000005,-0.9,7.7
5504,-5.1000000000000005,-1.1,7.9
5520,-4.7,-1.2000000000000002,8.0
5536,-4.6000000000000005,-2.5,7.300000000000001
5552,-4.6000000000000005,-2.5,7.300000000000001
5568,-4.4,-3.2,7.1000000000000005
5584,-4.5,-3.5,7.2
5600,-4.4,-3.1,7.4
5616,-4.4,-2.8000000000000003,7.300000000000001
5632,-4.6000000000000005,-2.9000000000000004,7.300000000000001
5648,-4.7,-3.4000000000000004,7.4
5664,-4.7,-3.4000000000000004,7.4
5680,-5.0,-3.3000000000000003,7.800000000000001
5696,-5.0,-3.0,7.7
5712,-5.0,-2.9000000000000004,7.2
5728,-5.0,-2.9000000000000004,7.2
5744,-5.1000000000000005,-3.2,7.4
5760,-5.300000000000001,-3.0,7.4
5776,-5.300000000000001,-2.8000000000000003,7.300000000000001
5792,-5.5,-2.7,7.800000000000001
5808,-5.800000000000001,-2.5,7.7
5824,-5.6000000000000005,-2.7,6.7
5840,-5.6000000000000005,-2.7,6.7
5856,-5.6000000000000005,-2.7,6.7
5872,-5.7,-2.8000000000000003,7.1000000000000005
5888,-5.7,-2.6,7.5
5904,-5.300000000000001,-2.7,6.9
5920,-5.300000000000001,-2.7,6.9
5936,-5.300000000000001,-3.0,7.2
5952,-5.5,-2.8000000000000003,7.0
5968,-5.4,-2.6,6.9
5984,-5.2,-3.0,6.6000000000000005
6000,-5.1000000000000005,-2.9000000000000004,6.5
6016,-5.1000000000000005,-2.4000000000000004,7.2
6032,-5.1000000000000005,-2.4000000000000004,7.2
6048,-5.1000000000000005,-2.3000000000000003,7.0
6064,-5.1000000000000005,-2.6,7.0
6080,-5.2,-2.7,7.2
6096,-5.300000000000001,-2.7,7.300000000000001
6112,-5.4,-2.6,7.4
6128,-5.5,-2.8000000000000003,8.0
6144,-5.5,-2.8000000000000003,8.0
6160,-5.4,-2.7,8.0
6176,-5.4,-2.6,8.3
6192,-5.4,-2.4000000000000004,8.5
6208,-5.4,-2.4000000000000004,8.5
6224,-5.5,-2.4000000000000004,8.700000000000001
6240,-5.5,-2.4000000000000004,8.700000000000001
6256,-5.6000000000000005,-2.3000000000000003,8.6
6272,-5.5,-2.3000000000000003,8.4
6288,-5.4,-2.3000000000000003,8.3
6304,-5.300000000000001,-2.2,8.3
6320,-5.1000000000000005,-2.3000000000000003,7.9
6336,-5.1000000000000005,-2.3000000000000003,7.9
6352,-5.0,-2.3000000000000003,7.800000000000001
6368,-4.9,-2.3000000000000003,7.7
6384,-4.800000000000001,-2.3000000000000003,7.5
6400,-4.800000000000001,-2.3000000000000003,7.5
6416,-4.800000000000001,-2.4000000000000004,7.5
6432,-4.9,-2.4000000000000004,7.5
6448,-5.0,-2.4000000000000004,7.7
6464,-5.1000000000000005,-2.5,7.800000000000001
6480,-5.1000000000000005,-2.4000000000000004,7.800000000000001
6496,-5.1000000000000005,-2.4000000000000004,7.800000000000001
6512,-5.1000000000000005,-2.4000000000000004,7.800000000000001
6528,-5.1000000000000005,-2.3000000000000003,7.9
6544,-5.1000000000000005,-2.3000000000000003,7.9
6560,-5.1000000000000005,-2.3000000000000003,8.0
6576,-5.2,-2.4000000000000004,8.1
6592,-5.2,-2.4000000000000004,8.1
6608,-5.1000000000000005,-2.4000000000000004,8.0
6624,-5.1000000000000005,-2.4000000000000004,8.0
6640,-5.1000000000000005,-2.4000000000000004,8.0
6656,-5.0,-2.4000000000000004,8.0
6672,-5.0,-2.4000000000000004,8.0
6688,-5.0,-2.5,7.9
6704,-5.0,-2.4000000000000004,7.800000000000001
6720,-5.0,-2.4000000000000004,7.7
6736,-5.0,-2.4000000000000004,7.7
6752,-5.0,-2.4000000000000004,7.7
6768,-5.0,-2.4000000000000004,7.800000000000001
6784,-5.0,-2.4000000000000004,7.800000000000001
6800,-5.0,-2.4000000000000004,7.9
6816,-5.0,-2.4000000000000004,7.9
6832,-5.0,-2.4000000000000004,7.9
6848,-5.0,-2.4000000000000004,7.9
6864,-5.0,-2.4000000000000004,8.0
6880,-5.0,-2.4000000000000004,8.0
6896,-5.1000000000000005,-2.4000000000000004,8.1
6912,-5.1000000000000005,-2.4000000000000004,8.0
6928,-5.0,-2.4000000000000004,7.800000000000001
6944,-5.0,-2.3000000000000003,7.800000000000001
6960,-5.0,-2.4000000000000004,7.800000000000001
6976,-5.0,-2.5,7.800000000000001
6992,-5.0,-2.5,7.800000000000001
7008,-5.0,-2.5,7.800000000000001
7024,-5.0,-2.5,7.800000000000001
7040,-5.0,-2.5,7.800000000000001
7056,-5.0,-2.5,7.800000000000001
7072,-5.0,-2.5,7.9
7088,-5.0,-2.5,7.9
7104,-5.0,-2.5,7.9
7120,-5.0,-2.5,7.9
7136,-5.0,-2.4000000000000004,7.9
7152,-5.0,-2.4000000000000004,7.9
7168,-5.0,-2.4000000000000004,7.800000000000001
7184,-5.0,-2.4000000000000004,7.800000000000001
7200,-5.0,-2.4000000000000004,7.800000000000001
7216,-5.0,-2.4000000000000004,7.9
7232,-5.0,-2.4000000000000004,7.800000000000001
7248,-5.0,-2.4000000000000004,7.800000000000001
7264,-5.0,-2.4000000000000004,7.800000000000001
7280,-5.0,-2.5,7.800000000000001
7296,-5.0,-2.5,7.800000000000001
7312,-5.0,-2.5,7.800000000000001
7328,-5.0,-2.5,7.9
7344,-5.0,-2.4000000000000004,7.9
7360,-5.0,-2.4000000000000004,7.9
7376,-5.0,-2.4000000000000004,7.800000000000001
7392,-5.0,-2.4000000000000004,7.800000000000001
7408,-5.0,-2.5,7.800000000000001
7424,-5.0,-2.4000000000000004,7.800000000000001
7440,-5.0,-2.4000000000000004,7.800000000000001
7456,-5.0,-2.4000000000000004,7.800000000000001
7472,-5.0,-2.5,7.800000000000001
7488,-5.0,-2.5,7.800000000000001
7504,-5.0,-2.5,7.9
7520,-5.0,-2.4000000000000004,7.800000000000001
7536,-5.0,-2.4000000000000004,7.800000000000001
7552,-5.0,-2.4000000000000004,7.800000000000001
7568,-5.0,-2.4000000000000004,7.800000000000001
7584,-5.0,-2.5,7.9
7600,-5.0,-2.5,7.9
7616,-5.0,-2.5,8.0
7632,-4.9,-2.5,7.9
7648,-5.0,-2.5,8.0
7664,-5.0,-2.5,8.0
7680,-5.1000000000000005,-2.5,8.0
7696,-5.0,-2.5,7.9
7712,-5.0,-2.4000000000000004,7.9
7728,-5.0,-2.4000000000000004,7.9
7744,-5.0,-2.4000000000000004,7.9
7760,-4.9,-2.4000000000000004,7.800000000000001
7776,-4.9,-2.4000000000000004,7.800000000000001
7792,-4.9,-2.4000000000000004,7.800000000000001
7808,-4.9,-2.4000000000000004,7.800000000000001
7824,-4.9,-2.5,7.9
7840,-4.9,-2.5,7.9
7856,-4.9,-2.5,7.9
7872,-4.9,-2.5,7.9
7888,-5.0,-2.5,7.9
7904,-5.0,-2.5,7.9
7920,-5.0,-2.5,7.9
7936,-5.0,-2.5,7.9
7952,-5.0,-2.5,7.9
7968,-5.0,-2.5,7.9
7984,-5.0,-2.5,7.9
8000,-5.0,-2.4000000000000004,7.9
8016,-5.0,-2.5,7.9
8032,-5.0,-2.5,7.9
8048,-5.0,-2.5,7.9
8064,-4.9,-2.5,7.800000000000001
8080,-4.9,-2.5,7.800000000000001
8096,-4.9,-2.5,7.800000000000001
8112,-4.9,-2.4000000000000004,7.800000000000001
8128,-4.9,-2.5,7.9
8144,-4.9,-2.5,7.9
8160,-4.9,-2.4000000000000004,7.800000000000001
8176,-4.9,-2.5,7.800000000000001
8192,-5.0,-2.5,7.9
8208,-5.0,-2.5,7.9
8224,-5.0,-2.5,7.9
8240,-5.0,-2.4000000000000004,7.9
8256,-4.9,-2.4000000000000004,7.9
8272,-4.9,-2.4000000000000004,7.9
8288,-5.0,-2.4000000000000004,7.9
8304,-5.0,-2.5,7.9
8320,-4.9,-2.5,7.9
8336,-4.9,-2.5,7.9
8352,-4.9,-2.5,7.9
8368,-4.9,-2.5,7.9
8384,-4.9,-2.6,7.800000000000001
8400,-4.9,-2.5,7.800000000000001
8416,-4.9,-2.5,7.9
8432,-4.9,-2.5,7.9
8448,-4.9,-2.5,7.9
8464,-4.9,-2.5,7.9
8480,-4.9,-2.5,7.9
8496,-4.9,-2.5,7.9
8512,-4.9,-2.5,8.0
8528,-5.0,-2.5,8.0
8544,-5.0,-2.5,8.0
8560,-5.0,-2.5,8.0
8576,-5.0,-2.5,8.0
8592,-5.0,-2.5,8.0
8608,-4.9,-2.5,7.9
8624,-4.9,-2.5,7.9
8640,-4.9,-2.5,7.9
8656,-4.9,-2.5,7.9
8672,-4.9,-2.5,7.9
8688,-4.9,-2.5,7.9
8704,-4.9,-2.5,7.9
8720,-4.9,-2.5,7.800000000000001
8736,-4.9,-2.5,7.800000000000001
8752,-4.9,-2.5,7.800000000000001
8768,-4.9,-2.5,7.800000000000001
8784,-4.9,-2.5,7.800000000000001
8800,-4.9,-2.5,7.800000000000001
8816,-4.9,-2.5,7.800000000000001
8832,-4.9,-2.5,7.9
8848,-5.0,-2.5,8.0
8864,-5.0,-2.5,8.0
8880,-5.0,-2.5,8.0
8896,-4.9,-2.4000000000000004,8.0
8912,-4.9,-2.5,8.0
8928,-4.9,-2.5,8.0
8944,-4.9,-2.5,8.0
8960,-4.9,-2.5,8.0
8976,-4.9,-2.5,7.9
8992,-4.9,-2.5,7.9
9008,-4.9,-2.5,7.9
9024,-4.800000000000001,-2.5,7.800000000000001
9040,-4.800000000000001,-2.5,7.800000000000001
9056,-4.800000000000001,-2.5,7.800000000000001
9072,-4.800000000000001,-2.5,7.800000000000001
9088,-4.800000000000001,-2.4000000000000004,7.800000000000001
9104,-4.9,-2.5,7.9
9120,-4.9,-2.5,7.9
9136,-4.9,-2.5,7.9
9152,-4.9,-2.5,8.0
9168,-4.9,-2.5,8.0
9184,-4.9,-2.5,8.0
9200,-4.9,-2.5,8.0
9216,-4.9,-2.5,7.9
9232,-4.9,-2.5,7.9
9248,-4.9,-2.5,7.9
9264,-4.9,-2.5,7.9
9280,-4.9,-2.5,7.9
9296,-4.9,-2.5,7.9
9312,-4.9,-2.5,7.9
9328,-4.9,-2.5,7.9
9344,-4.9,-2.5,8.0
9360,-4.9,-2.5,8.0
9376,-5.0,-2.5,8.0
9392,-5.0,-2.4000000000000004,8.1
9408,-5.0,-2.4000000000000004,8.1
9424,-5.0,-2.4000000000000004,8.0
9440,-5.0,-2.4000000000000004,8.0
9456,-5.0,-2.4000000000000004,8.0
9472,-5.0,-2.4000000000000004,8.1
9488,-5.0,-2.4000000000000004,8.1
9504,-5.0,-2.4000000000000004,8.0
9520,-5.0,-2.3000000000000003,7.9
9536,-5.0,-2.3000000000000003,7.9
9552,-5.0,-2.3000000000000003,7.9
9568,-5.0,-2.4000000000000004,7.9
9584,-5.0,-2.5,7.9
9600,-5.0,-2.5,7.9
9616,-5.0,-2.5,7.800000000000001
9632,-5.0,-2.4000000000000004,7.800000000000001
9648,-5.0,-2.4000000000000004,7.800000000000001
9664,-5.0,-2.4000000000000004,7.9
9680,-5.0,-2.4000000000000004,8.0
9696,-5.0,-2.3000000000000003,7.800000000000001
9712,-5.0,-2.3000000000000003,7.800000000000001
9728,-5.1000000000000005,-2.2,7.9
9744,-5.1000000000000005,-2.2,7.800000000000001
9760,-5.1000000000000005,-2.2,7.800000000000001
9776,-5.2,-2.3000000000000003,8.0
9792,-5.2,-2.2,8.0
9808,-5.300000000000001,-2.2,7.800000000000001
9824,-5.300000000000001,-2.4000000000000004,7.7
9840,-5.300000000000001,-2.4000000000000004,7.7
9856,-5.2,-2.4000000000000004,7.5
9872,-5.2,-2.2,7.6000000000000005
9888,-5.300000000000001,-2.2,7.6000000000000005
9904,-5.300000000000001,-2.2,7.6000000000000005
9920,-5.300000000000001,-2.3000000000000003,7.6000000000000005
9936,-5.300000000000001,-2.2,7.6000000000000005
9952,-5.300000000000001,-2.2,7.6000000000000005
9968,-5.300000000000001,-2.4000000000000004,7.6000000000000005
9984,-5.300000000000001,-2.1,7.7
