timestamp,accX,accY,accZ
0,-6.300000000000001,-3.2,6.7
16,-6.300000000000001,-3.2,6.7
32,-6.300000000000001,-3.2,6.7
48,-6.300000000000001,-3.2,6.7
64,-6.300000000000001,-3.2,6.7
80,-6.300000000000001,-3.2,6.7
96,-6.300000000000001,-3.2,6.7
112,-6.300000000000001,-3.2,6.7
128,-6.300000000000001,-3.2,6.7
144,-6.300000000000001,-3.2,6.7
160,-6.300000000000001,-3.2,6.7
176,-6.300000000000001,-3.2,6.7
192,-6.300000000000001,-3.2,6.7
208,-6.300000000000001,-3.2,6.7
224,-6.300000000000001,-3.2,6.7
240,-6.300000000000001,-3.2,6.7
256,-6.300000000000001,-3.2,6.7
272,-6.300000000000001,-3.2,6.7
288,-6.300000000000001,-3.2,6.7
304,-6.300000000000001,-3.2,6.7
320,-6.300000000000001,-3.2,6.7
336,-6.300000000000001,-3.2,6.7
352,-6.300000000000001,-3.2,6.7
368,-6.300000000000001,-3.1,6.7
384,-6.300000000000001,-3.2,6.7
400,-6.300000000000001,-3.2,6.7
416,-6.300000000000001,-3.2,6.7
432,-6.300000000000001,-3.2,6.7
448,-6.300000000000001,-3.2,6.7
464,-6.300000000000001,-3.1,6.6000000000000005
480,-6.300000000000001,-3.1,6.6000000000000005
496,-6.300000000000001,-3.2,6.7
512,-6.300000000000001,-3.2,6.7
528,-6.300000000000001,-3.1,6.6000000000000005
544,-6.300000000000001,-3.1,6.6000000000000005
560,-6.2,-3.1,6.7
576,-6.300000000000001,-3.2,6.7
592,-6.300000000000001,-3.2,6.7
608,-6.300000000000001,-3.2,6.7
624,-6.300000000000001,-3.2,6.7
640,-6.300000000000001,-3.2,6.7
656,-6.300000000000001,-3.2,6.6000000000000005
672,-6.2,-3.1,6.6000000000000005
688,-6.300000000000001,-3.2,6.7
704,-6.300000000000001,-3.2,6.6000000000000005
720,-6.300000000000001,-3.2,6.6000000000000005
736,-6.300000000000001,-3.2,6.6000000000000005
752,-6.300000000000001,-3.2,6.6000000000000005
768,-6.300000000000001,-3.2,6.6000000000000005
784,-6.300000000000001,-3.2,6.6000000000000005
800,-6.300000000000001,-3.1,6.6000000000000005
816,-6.300000000000001,-3.1,6.7
832,-6.300000000000001,-3.2,6.7
848,-6.300000000000001,-3.2,6.7
864,-6.300000000000001,-3.2,6.6000000000000005
880,-6.300000000000001,-3.2,6.6000000000000005
896,-6.300000000000001,-3.2,6.7
912,-6.300000000000001,-3.2,6.6000000000000005
928,-6.300000000000001,-3.2,6.6000000000000005
944,-6.2,-3.1,6.6000000000000005
960,-6.2,-3.2,6.6000000000000005
976,-6.300000000000001,-3.2,6.7
992,-6.300000000000001,-3.2,6.6000000000000005
1008,-6.300000000000001,-3.2,6.6000000000000005
1024,-6.300000000000001,-3.2,6.6000000000000005
1040,-6.300000000000001,-3.2,6.6000000000000005
1056,-6.300000000000001,-3.2,6.6000000000000005
1072,-6.300000000000001,-3.2,6.6000000000000005
1088,-6.300000000000001,-3.2,6.7
1104,-6.300000000000001,-3.2,6.7
1120,-6.300000000000001,-3.2,6.7
1136,-6.300000000000001,-3.2,6.7
1152,-6.300000000000001,-3.2,6.6000000000000005
1168,-6.300000000000001,-3.2,6.6000000000000005
1184,-6.300000000000001,-3.2,6.6000000000000005
1200,-6.4,-3.3000000000000003,6.7
1216,-6.300000000000001,-3.2,6.6000000000000005
1232,-6.300000000000001,-3.1,6.6000000000000005
1248,-6.300000000000001,-3.1,6.6000000000000005
1264,-6.300000000000001,-3.2,6.7
1280,-6.300000000000001,-3.2,6.7
1296,-6.300000000000001,-3.1,6.7
1312,-6.300000000000001,-3.1,6.7
1328,-6.300000000000001,-3.1,6.7
1344,-6.300000000000001,-3.1,6.6000000000000005
1360,-6.300000000000001,-3.1,6.6000000000000005
1376,-6.300000000000001,-3.0,6.7
1392,-6.300000000000001,-3.0,6.7
1408,-6.300000000000001,-3.0,6.6000000000000005
1424,-6.4,-3.1,6.7
1440,-6.4,-3.1,6.7
1456,-6.300000000000001,-3.0,6.6000000000000005
1472,-6.4,-3.0,6.6000000000000005
1488,-6.4,-3.1,6.7
1504,-6.4,-3.1,6.7
1520,-6.4,-3.0,6.6000000000000005
1536,-6.4,-3.0,6.7
1552,-6.4,-3.0,6.7
1568,-6.4,-2.9000000000000004,6.6000000000000005
1584,-6.4,-3.0,6.6000000000000005
1600,-6.4,-3.0,6.6000000000000005
1616,-6.4,-3.0,6.6000000000000005
1632,-6.4,-2.9000000000000004,6.5
1648,-6.4,-2.9000000000000004,6.6000000000000005
1664,-6.4,-2.9000000000000004,6.5
1680,-6.4,-2.9000000000000004,6.5
1696,-6.4,-2.9000000000000004,6.5
1712,-6.4,-2.9000000000000004,6.4
1728,-6.4,-3.0,6.4
1744,-6.4,-3.1,6.300000000000001
1760,-6.300000000000001,-3.1,6.300000000000001
1776,-6.300000000000001,-3.2,6.4
1792,-6.300000000000001,-3.3000000000000003,6.4
1808,-6.2,-3.2,6.4
1824,-6.2,-3.2,6.4
1840,-6.2,-3.1,6.4
1856,-6.2,-3.1,6.4
1872,-6.2,-3.0,6.6000000000000005
1888,-6.300000000000001,-3.0,6.7
1904,-6.4,-3.0,6.9
1920,-6.4,-3.0,7.1000000000000005
1936,-6.4,-3.0,7.2
1952,-6.4,-2.9000000000000004,7.1000000000000005
1968,-6.300000000000001,-3.0,7.0
1984,-6.300000000000001,-3.0,6.9
2000,-6.300000000000001,-3.1,6.800000000000001
2016,-6.300000000000001,-3.1,6.800000000000001
2032,-6.2,-3.1,6.7
2048,-6.2,-3.2,6.7
2064,-6.2,-3.2,6.7
2080,-6.2,-3.2,6.7
2096,-6.1000000000000005,-3.2,6.6000000000000005
2112,-6.1000000000000005,-3.2,6.6000000000000005
2128,-6.1000000000000005,-3.2,6.6000000000000005
2144,-6.1000000000000005,-3.2,6.6000000000000005
2160,-6.1000000000000005,-3.1,6.6000000000000005
2176,-6.1000000000000005,-3.1,6.7
2192,-6.1000000000000005,-3.1,6.7
2208,-6.2,-3.1,6.800000000000001
2224,-6.2,-3.1,6.800000000000001
2240,-6.2,-3.1,6.800000000000001
2256,-6.2,-3.2,6.800000000000001
2272,-6.2,-3.2,6.800000000000001
2288,-6.2,-3.1,6.800000000000001
2304,-6.2,-3.2,6.800000000000001
2320,-6.2,-3.2,6.800000000000001
2336,-6.2,-3.2,6.800000000000001
2352,-6.2,-3.3000000000000003,6.800000000000001
2368,-6.2,-3.3000000000000003,6.800000000000001
2384,-6.1000000000000005,-3.3000000000000003,6.7
2400,-6.1000000000000005,-3.2,6.7
2416,-6.0,-3.2,6.6000000000000005
2432,-6.0,-3.1,6.6000000000000005
2448,-6.0,-3.1,6.5
2464,-6.0,-3.2,6.5
2480,-6.0,-3.2,6.5
2496,-6.0,-3.2,6.6000000000000005
2512,-6.1000000000000005,-3.2,6.7
2528,-6.1000000000000005,-3.2,6.7
2544,-6.1000000000000005,-3.2,6.7
2560,-6.2,-3.3000000000000003,6.9
2576,-6.2,-3.4000000000000004,6.9
2592,-6.2,-3.4000000000000004,7.0
2608,-6.2,-3.4000000000000004,6.9
2624,-6.2,-3.4000000000000004,6.9
2640,-6.2,-3.4000000000000004,6.9
2656,-6.1000000000000005,-3.4000000000000004,6.800000000000001
2672,-6.0,-3.4000000000000004,6.800000000000001
2688,-6.0,-3.4000000000000004,6.7
2704,-6.0,-3.4000000000000004,6.7
2720,-5.9,-3.4000000000000004,6.6000000000000005
2736,-5.800000000000001,-3.3000000000000003,6.5
2752,-5.9,-3.3000000000000003,6.5
2768,-5.9,-3.4000000000000004,6.6000000000000005
2784,-6.0,-3.4000000000000004,6.7
2800,-6.0,-3.4000000000000004,6.800000000000001
2816,-6.1000000000000005,-3.4000000000000004,6.800000000000001
2832,-6.1000000000000005,-3.4000000000000004,6.800000000000001
2848,-6.1000000000000005,-3.4000000000000004,6.800000000000001
2864,-6.1000000000000005,-3.4000000000000004,6.800000000000001
2880,-6.1000000000000005,-3.4000000000000004,6.800000000000001
2896,-6.1000000000000005,-3.5,6.800000000000001
2912,-6.1000000000000005,-3.5,6.800000000000001
2928,-6.1000000000000005,-3.5,6.800000000000001
2944,-6.1000000000000005,-3.5,6.800000000000001
2960,-6.1000000000000005,-3.5,6.800000000000001
2976,-6.0,-3.5,6.800000000000001
2992,-6.0,-3.5,6.800000000000001
3008,-6.0,-3.5,6.7
3024,-6.0,-3.5,6.7
3040,-6.0,-3.5,6.7
3056,-5.9,-3.5,6.7
3072,-6.0,-3.5,6.7
3088,-6.0,-3.5,6.7
3104,-6.0,-3.5,6.800000000000001
3120,-6.0,-3.5,6.800000000000001
3136,-6.1000000000000005,-3.5,6.800000000000001
3152,-6.1000000000000005,-3.5,6.800000000000001
3168,-6.1000000000000005,-3.4000000000000004,6.800000000000001
3184,-6.1000000000000005,-3.4000000000000004,6.800000000000001
3200,-6.1000000000000005,-3.4000000000000004,6.7
3216,-6.1000000000000005,-3.4000000000000004,6.800000000000001
3232,-6.1000000000000005,-3.4000000000000004,6.800000000000001
3248,-6.1000000000000005,-3.4000000000000004,6.800000000000001
3264,-6.0,-3.4000000000000004,6.7
3280,-6.0,-3.4000000000000004,6.7
3296,-6.0,-3.3000000000000003,6.7
3312,-6.0,-3.3000000000000003,6.7
3328,-6.0,-3.3000000000000003,6.6000000000000005
3344,-6.0,-3.3000000000000003,6.6000000000000005
3360,-6.0,-3.3000000000000003,6.6000000000000005
3376,-6.0,-3.3000000000000003,6.7
3392,-6.0,-3.3000000000000003,6.7
3408,-6.1000000000000005,-3.3000000000000003,6.7
3424,-6.1000000000000005,-3.3000000000000003,6.7
3440,-6.1000000000000005,-3.3000000000000003,6.800000000000001
3456,-6.1000000000000005,-3.3000000000000003,6.800000000000001
3472,-6.1000000000000005,-3.3000000000000003,6.800000000000001
3488,-6.1000000000000005,-3.3000000000000003,6.800000000000001
3504,-6.1000000000000005,-3.3000000000000003,6.800000000000001
3520,-6.1000000000000005,-3.3000000000000003,6.800000000000001
3536,-6.1000000000000005,-3.3000000000000003,6.7
3552,-6.1000000000000005,-3.3000000000000003,6.7
3568,-6.1000000000000005,-3.3000000000000003,6.7
3584,-6.1000000000000005,-3.3000000000000003,6.7
3600,-6.0,-3.2,6.7
3616,-6.0,-3.3000000000000003,6.7
3632,-6.0,-3.2,6.7
3648,-6.0,-3.3000000000000003,6.7
3664,-6.1000000000000005,-3.3000000000000003,6.7
3680,-6.1000000000000005,-3.3000000000000003,6.7
3696,-6.1000000000000005,-3.3000000000000003,6.7
3712,-6.1000000000000005,-3.3000000000000003,6.800000000000001
3728,-6.1000000000000005,-3.3000000000000003,6.800000000000001
3744,-6.1000000000000005,-3.3000000000000003,6.800000000000001
3760,-6.1000000000000005,-3.3000000000000003,6.800000000000001
3776,-6.1000000000000005,-3.3000000000000003,6.800000000000001
3792,-6.1000000000000005,-3.3000000000000003,6.800000000000001
3808,-6.1000000000000005,-3.3000000000000003,6.800000000000001
3824,-6.1000000000000005,-3.3000000000000003,6.800000000000001
3840,-6.1000000000000005,-3.3000000000000003,6.800000000000001
3856,-6.1000000000000005,-3.3000000000000003,6.7
3872,-6.1000000000000005,-3.3000000000000003,6.7
3888,-6.1000000000000005,-3.3000000000000003,6.7
3904,-6.1000000000000005,-3.3000000000000003,6.7
3920,-6.1000000000000005,-3.3000000000000003,6.7
3936,-6.1000000000000005,-3.3000000000000003,6.7
3952,-6.1000000000000005,-3.3000000000000003,6.7
3968,-6.1000000000000005,-3.3000000000000003,6.7
3984,-6.1000000000000005,-3.3000000000000003,6.7
4000,-6.1000000000000005,-3.3000000000000003,6.800000000000001
4016,-6.1000000000000005,-3.3000000000000003,6.800000000000001
4032,-6.1000000000000005,-3.3000000000000003,6.800000000000001
4048,-6.1000000000000005,-3.3000000000000003,6.800000000000001
4064,-6.1000000000000005,-3.3000000000000003,6.800000000000001
4080,-6.1000000000000005,-3.3000000000000003,6.800000000000001
4096,-6.1000000000000005,-3.3000000000000003,6.800000000000001
4112,-6.1000000000000005,-3.3000000000000003,6.800000000000001
4128,-6.1000000000000005,-3.3000000000000003,6.800000000000001
4144,-6.1000000000000005,-3.3000000000000003,6.7
4160,-6.1000000000000005,-3.3000000000000003,6.7
4176,-6.1000000000000005,-3.3000000000000003,6.7
4192,-6.1000000000000005,-3.3000000000000003,6.800000000000001
4208,-6.1000000000000005,-3.3000000000000003,6.800000000000001
4224,-6.1000000000000005,-3.3000000000000003,6.7
4240,-6.1000000000000005,-3.3000000000000003,6.7
4256,-6.1000000000000005,-3.3000000000000003,6.800000000000001
4272,-6.1000000000000005,-3.3000000000000003,6.800000000000001
4288,-6.1000000000000005,-3.3000000000000003,6.7
4304,-6.1000000000000005,-3.3000000000000003,6.800000000000001
4320,-6.1000000000000005,-3.3000000000000003,6.800000000000001
4336,-6.1000000000000005,-3.3000000000000003,6.800000000000001
4352,-6.1000000000000005,-3.3000000000000003,6.800000000000001
4368,-6.1000000000000005,-3.3000000000000003,6.800000000000001
4384,-6.1000000000000005,-3.3000000000000003,6.800000000000001
4400,-6.1000000000000005,-3.3000000000000003,6.800000000000001
4416,-6.1000000000000005,-3.3000000000000003,6.7
4432,-6.1000000000000005,-3.3000000000000003,6.7
4448,-6.1000000000000005,-3.3000000000000003,6.7
4464,-6.1000000000000005,-3.3000000000000003,6.800000000000001
4480,-6.1000000000000005,-3.3000000000000003,6.800000000000001
4496,-6.1000000000000005,-3.3000000000000003,6.800000000000001
4512,-6.1000000000000005,-3.3000000000000003,6.7
4528,-6.1000000000000005,-3.3000000000000003,6.800000000000001
4544,-6.1000000000000005,-3.3000000000000003,6.800000000000001
4560,-6.1000000000000005,-3.3000000000000003,6.800000000000001
4576,-6.1000000000000005,-3.3000000000000003,6.7
4592,-6.1000000000000005,-3.3000000000000003,6.7
4608,-6.1000000000000005,-3.3000000000000003,6.7
4624,-6.1000000000000005,-3.3000000000000003,6.800000000000001
4640,-6.1000000000000005,-3.3000000000000003,6.800000000000001
4656,-6.1000000000000005,-3.3000000000000003,6.800000000000001
4672,-6.1000000000000005,-3.3000000000000003,6.800000000000001
4688,-6.1000000000000005,-3.3000000000000003,6.800000000000001
4704,-6.1000000000000005,-3.3000000000000003,6.800000000000001
4720,-6.1000000000000005,-3.3000000000000003,6.800000000000001
4736,-6.1000000000000005,-3.3000000000000003,6.7
4752,-6.1000000000000005,-3.3000000000000003,6.7
4768,-6.1000000000000005,-3.3000000000000003,6.800000000000001
4784,-6.1000000000000005,-3.3000000000000003,6.800000000000001
4800,-6.1000000000000005,-3.3000000000000003,6.800000000000001
4816,-6.1000000000000005,-3.3000000000000003,6.7
4832,-6.1000000000000005,-3.3000000000000003,6.7
4848,-6.1000000000000005,-3.3000000000000003,6.7
4864,-6.1000000000000005,-3.3000000000000003,6.7
4880,-6.1000000000000005,-3.3000000000000003,6.800000000000001
4896,-6.1000000000000005,-3.3000000000000003,6.800000000000001
4912,-6.1000000000000005,-3.3000000000000003,6.800000000000001
4928,-6.1000000000000005,-3.3000000000000003,6.800000000000001
4944,-6.1000000000000005,-3.3000000000000003,6.800000000000001
4960,-6.1000000000000005,-3.3000000000000003,6.800000000000001
4976,-6.1000000000000005,-3.3000000000000003,6.800000000000001
4992,-6.1000000000000005,-3.3000000000000003,6.800000000000001
5008,-6.1000000000000005,-3.3000000000000003,6.800000000000001
5024,-6.1000000000000005,-3.3000000000000003,6.7
5040,-6.1000000000000005,-3.3000000000000003,6.800000000000001
5056,-6.1000000000000005,-3.3000000000000003,6.800000000000001
5072,-6.1000000000000005,-3.3000000000000003,6.800000000000001
5088,-6.1000000000000005,-3.3000000000000003,6.800000000000001
5104,-6.1000000000000005,-3.3000000000000003,6.800000000000001
5120,-6.1000000000000005,-3.3000000000000003,6.800000000000001
5136,-6.1000000000000005,-3.3000000000000003,6.7
5152,-6.1000000000000005,-3.3000000000000003,6.800000000000001
5168,-6.1000000000000005,-3.3000000000000003,6.800000000000001
5184,-6.1000000000000005,-3.3000000000000003,6.7
5200,-6.1000000000000005,-3.3000000000000003,6.800000000000001
5216,-6.1000000000000005,-3.3000000000000003,6.800000000000001
5232,-6.1000000000000005,-3.3000000000000003,6.800000000000001
5248,-6.1000000000000005,-3.3000000000000003,6.800000000000001
5264,-6.1000000000000005,-3.3000000000000003,6.800000000000001
5280,-6.1000000000000005,-3.3000000000000003,6.800000000000001
5296,-6.1000000000000005,-3.3000000000000003,6.800000000000001
5312,-6.1000000000000005,-3.3000000000000003,6.7
5328,-6.1000000000000005,-3.3000000000000003,6.800000000000001
5344,-6.1000000000000005,-3.3000000000000003,6.7
5360,-6.1000000000000005,-3.3000000000000003,6.7
5376,-6.1000000000000005,-3.3000000000000003,6.7
5392,-6.1000000000000005,-3.3000000000000003,6.7
5408,-6.1000000000000005,-3.3000000000000003,6.800000000000001
5424,-6.1000000000000005,-3.3000000000000003,6.800000000000001
5440,-6.1000000000000005,-3.3000000000000003,6.800000000000001
5456,-6.1000000000000005,-3.3000000000000003,6.800000000000001
5472,-6.1000000000000005,-3.3000000000000003,6.800000000000001
5488,-6.1000000000000005,-3.3000000000000003,6.7
5504,-6.1000000000000005,-3.3000000000000003,6.7
5520,-6.1000000000000005,-3.3000000000000003,6.800000000000001
5536,-6.1000000000000005,-3.3000000000000003,6.800000000000001
5552,-6.1000000000000005,-3.3000000000000003,6.7
5568,-6.1000000000000005,-3.3000000000000003,6.800000000000001
5584,-6.1000000000000005,-3.3000000000000003,6.800000000000001
5600,-6.1000000000000005,-3.3000000000000003,6.7
5616,-6.1000000000000005,-3.3000000000000003,6.7
5632,-6.1000000000000005,-3.3000000000000003,6.800000000000001
5648,-6.1000000000000005,-3.3000000000000003,6.7
5664,-6.1000000000000005,-3.3000000000000003,6.7
5680,-6.1000000000000005,-3.3000000000000003,6.800000000000001
5696,-6.1000000000000005,-3.3000000000000003,6.800000000000001
5712,-6.1000000000000005,-3.3000000000000003,6.800000000000001
5728,-6.1000000000000005,-3.3000000000000003,6.800000000000001
5744,-6.1000000000000005,-3.3000000000000003,6.800000000000001
5760,-6.1000000000000005,-3.3000000000000003,6.800000000000001
5776,-6.1000000000000005,-3.3000000000000003,6.800000000000001
5792,-6.1000000000000005,-3.3000000000000003,6.7
5808,-6.1000000000000005,-3.3000000000000003,6.800000000000001
5824,-6.1000000000000005,-3.3000000000000003,6.7
5840,-6.1000000000000005,-3.3000000000000003,6.7
5856,-6.1000000000000005,-3.3000000000000003,6.7
5872,-6.1000000000000005,-3.3000000000000003,6.7
5888,-6.1000000000000005,-3.3000000000000003,6.800000000000001
5904,-6.1000000000000005,-3.3000000000000003,6.800000000000001
5920,-6.1000000000000005,-3.3000000000000003,6.800000000000001
5936,-6.1000000000000005,-3.3000000000000003,6.800000000000001
5952,-6.1000000000000005,-3.3000000000000003,6.800000000000001
5968,-6.1000000000000005,-3.3000000000000003,6.800000000000001
5984,-6.1000000000000005,-3.3000000000000003,6.800000000000001
6000,-6.1000000000000005,-3.3000000000000003,6.800000000000001
6016,-6.1000000000000005,-3.3000000000000003,6.800000000000001
6032,-6.1000000000000005,-3.3000000000000003,6.800000000000001
6048,-6.1000000000000005,-3.3000000000000003,6.800000000000001
6064,-6.1000000000000005,-3.3000000000000003,6.800000000000001
6080,-6.1000000000000005,-3.3000000000000003,6.7
6096,-6.1000000000000005,-3.3000000000000003,6.7
6112,-6.1000000000000005,-3.3000000000000003,6.7
6128,-6.1000000000000005,-3.3000000000000003,6.7
6144,-6.1000000000000005,-3.3000000000000003,6.7
6160,-6.1000000000000005,-3.3000000000000003,6.7
6176,-6.1000000000000005,-3.3000000000000003,6.7
6192,-6.1000000000000005,-3.3000000000000003,6.800000000000001
6208,-6.1000000000000005,-3.3000000000000003,6.800000000000001
6224,-6.1000000000000005,-3.3000000000000003,6.800000000000001
6240,-6.1000000000000005,-3.3000000000000003,6.800000000000001
6256,-6.1000000000000005,-3.3000000000000003,6.800000000000001
6272,-6.1000000000000005,-3.3000000000000003,6.800000000000001
6288,-6.1000000000000005,-3.3000000000000003,6.800000000000001
6304,-6.1000000000000005,-3.3000000000000003,6.7
6320,-6.1000000000000005,-3.3000000000000003,6.7
6336,-6.1000000000000005,-3.3000000000000003,6.7
6352,-6.1000000000000005,-3.3000000000000003,6.7
6368,-6.1000000000000005,-3.3000000000000003,6.7
6384,-6.1000000000000005,-3.3000000000000003,6.7
6400,-6.1000000000000005,-3.3000000000000003,6.7
6416,-6.1000000000000005,-3.3000000000000003,6.800000000000001
6432,-6.1000000000000005,-3.3000000000000003,6.800000000000001
6448,-6.1000000000000005,-3.3000000000000003,6.800000000000001
6464,-6.1000000000000005,-3.3000000000000003,6.800000000000001
6480,-6.1000000000000005,-3.3000000000000003,6.800000000000001
6496,-6.1000000000000005,-3.3000000000000003,6.800000000000001
6512,-6.1000000000000005,-3.3000000000000003,6.800000000000001
6528,-6.1000000000000005,-3.3000000000000003,6.800000000000001
6544,-6.1000000000000005,-3.3000000000000003,6.800000000000001
6560,-6.1000000000000005,-3.3000000000000003,6.7
6576,-6.1000000000000005,-3.3000000000000003,6.7
6592,-6.1000000000000005,-3.3000000000000003,6.7
6608,-6.1000000000000005,-3.3000000000000003,6.7
6624,-6.1000000000000005,-3.3000000000000003,6.7
6640,-6.1000000000000005,-3.3000000000000003,6.7
6656,-6.1000000000000005,-3.3000000000000003,6.800000000000001
6672,-6.1000000000000005,-3.3000000000000003,6.800000000000001
6688,-6.1000000000000005,-3.3000000000000003,6.800000000000001
6704,-6.1000000000000005,-3.3000000000000003,6.800000000000001
6720,-6.1000000000000005,-3.3000000000000003,6.800000000000001
6736,-6.1000000000000005,-3.3000000000000003,6.7
6752,-6.1000000000000005,-3.3000000000000003,6.7
6768,-6.1000000000000005,-3.3000000000000003,6.7
6784,-6.1000000000000005,-3.3000000000000003,6.7
6800,-6.1000000000000005,-3.3000000000000003,6.7
6816,-6.1000000000000005,-3.3000000000000003,6.7
6832,-6.1000000000000005,-3.3000000000000003,6.7
6848,-6.1000000000000005,-3.3000000000000003,6.800000000000001
6864,-6.1000000000000005,-3.3000000000000003,6.800000000000001
6880,-6.1000000000000005,-3.3000000000000003,6.800000000000001
6896,-6.1000000000000005,-3.3000000000000003,6.800000000000001
6912,-6.1000000000000005,-3.3000000000000003,6.800000000000001
6928,-6.1000000000000005,-3.3000000000000003,6.800000000000001
6944,-6.1000000000000005,-3.3000000000000003,6.800000000000001
6960,-6.1000000000000005,-3.3000000000000003,6.800000000000001
6976,-6.1000000000000005,-3.3000000000000003,6.800000000000001
6992,-6.1000000000000005,-3.3000000000000003,6.7
7008,-6.1000000000000005,-3.3000000000000003,6.7
7024,-6.1000000000000005,-3.3000000000000003,6.7
7040,-6.1000000000000005,-3.3000000000000003,6.7
7056,-6.1000000000000005,-3.3000000000000003,6.7
7072,-6.1000000000000005,-3.3000000000000003,6.7
7088,-6.1000000000000005,-3.3000000000000003,6.7
7104,-6.1000000000000005,-3.3000000000000003,6.7
7120,-6.1000000000000005,-3.3000000000000003,6.800000000000001
7136,-6.1000000000000005,-3.3000000000000003,6.7
7152,-6.1000000000000005,-3.3000000000000003,6.800000000000001
7168,-6.1000000000000005,-3.3000000000000003,6.800000000000001
7184,-6.1000000000000005,-3.3000000000000003,6.800000000000001
7200,-6.1000000000000005,-3.3000000000000003,6.800000000000001
7216,-6.1000000000000005,-3.3000000000000003,6.7
7232,-6.1000000000000005,-3.3000000000000003,6.7
7248,-6.1000000000000005,-3.3000000000000003,6.7
7264,-6.1000000000000005,-3.3000000000000003,6.7
7280,-6.1000000000000005,-3.3000000000000003,6.7
7296,-6.1000000000000005,-3.3000000000000003,6.7
7312,-6.1000000000000005,-3.3000000000000003,6.7
7328,-6.1000000000000005,-3.3000000000000003,6.7
7344,-6.1000000000000005,-3.3000000000000003,6.800000000000001
7360,-6.1000000000000005,-3.3000000000000003,6.800000000000001
7376,-6.1000000000000005,-3.3000000000000003,6.7
7392,-6.1000000000000005,-3.3000000000000003,6.7
7408,-6.1000000000000005,-3.3000000000000003,6.800000000000001
7424,-6.1000000000000005,-3.3000000000000003,6.7
7440,-6.1000000000000005,-3.3000000000000003,6.7
7456,-6.1000000000000005,-3.3000000000000003,6.7
7472,-6.1000000000000005,-3.3000000000000003,6.800000000000001
7488,-6.1000000000000005,-3.3000000000000003,6.800000000000001
7504,-6.1000000000000005,-3.3000000000000003,6.7
7520,-6.1000000000000005,-3.3000000000000003,6.800000000000001
7536,-6.1000000000000005,-3.3000000000000003,6.7
7552,-6.1000000000000005,-3.3000000000000003,6.7
7568,-6.1000000000000005,-3.3000000000000003,6.800000000000001
7584,-6.1000000000000005,-3.3000000000000003,6.800000000000001
7600,-6.1000000000000005,-3.3000000000000003,6.800000000000001
7616,-6.1000000000000005,-3.3000000000000003,6.7
7632,-6.1000000000000005,-3.3000000000000003,6.800000000000001
7648,-6.1000000000000005,-3.3000000000000003,6.800000000000001
7664,-6.1000000000000005,-3.3000000000000003,6.800000000000001
7680,-6.1000000000000005,-3.3000000000000003,6.7
7696,-6.1000000000000005,-3.3000000000000003,6.7
7712,-6.1000000000000005,-3.3000000000000003,6.7
7728,-6.1000000000000005,-3.3000000000000003,6.800000000000001
7744,-6.1000000000000005,-3.3000000000000003,6.7
7760,-6.1000000000000005,-3.3000000000000003,6.7
7776,-6.1000000000000005,-3.3000000000000003,6.7
7792,-6.1000000000000005,-3.3000000000000003,6.7
7808,-6.1000000000000005,-3.3000000000000003,6.7
7824,-6.1000000000000005,-3.3000000000000003,6.800000000000001
7840,-6.1000000000000005,-3.3000000000000003,6.800000000000001
7856,-6.1000000000000005,-3.3000000000000003,6.800000000000001
7872,-6.1000000000000005,-3.3000000000000003,6.800000000000001
7888,-6.1000000000000005,-3.3000000000000003,6.800000000000001
7904,-6.1000000000000005,-3.3000000000000003,6.800000000000001
7920,-6.1000000000000005,-3.3000000000000003,6.7
7936,-6.1000000000000005,-3.3000000000000003,6.800000000000001
7952,-6.1000000000000005,-3.3000000000000003,6.7
7968,-6.1000000000000005,-3.3000000000000003,6.7
7984,-6.1000000000000005,-3.3000000000000003,6.800000000000001
8000,-6.1000000000000005,-3.3000000000000003,6.800000000000001
8016,-6.1000000000000005,-3.3000000000000003,6.7
8032,-6.1000000000000005,-3.3000000000000003,6.7
8048,-6.1000000000000005,-3.3000000000000003,6.7
8064,-6.0,-3.3000000000000003,6.7
8080,-6.1000000000000005,-3.3000000000000003,6.800000000000001
8096,-6.1000000000000005,-3.3000000000000003,6.800000000000001
8112,-6.1000000000000005,-3.3000000000000003,6.800000000000001
8128,-6.1000000000000005,-3.3000000000000003,6.7
8144,-6.1000000000000005,-3.3000000000000003,6.7
8160,-6.1000000000000005,-3.3000000000000003,6.7
8176,-6.1000000000000005,-3.3000000000000003,6.800000000000001
8192,-6.1000000000000005,-3.3000000000000003,6.800000000000001
8208,-6.1000000000000005,-3.3000000000000003,6.800000000000001
8224,-6.1000000000000005,-3.3000000000000003,6.800000000000001
8240,-6.1000000000000005,-3.3000000000000003,6.800000000000001
8256,-6.1000000000000005,-3.3000000000000003,6.800000000000001
8272,-6.1000000000000005,-3.3000000000000003,6.7
8288,-6.1000000000000005,-3.3000000000000003,6.7
8304,-6.1000000000000005,-3.3000000000000003,6.7
8320,-6.1000000000000005,-3.3000000000000003,6.7
8336,-6.1000000000000005,-3.3000000000000003,6.7
8352,-6.1000000000000005,-3.3000000000000003,6.7
8368,-6.1000000000000005,-3.3000000000000003,6.7
8384,-6.1000000000000005,-3.3000000000000003,6.800000000000001
8400,-6.1000000000000005,-3.3000000000000003,6.800000000000001
8416,-6.1000000000000005,-3.3000000000000003,6.800000000000001
8432,-6.1000000000000005,-3.3000000000000003,6.800000000000001
8448,-6.1000000000000005,-3.3000000000000003,6.800000000000001
8464,-6.1000000000000005,-3.3000000000000003,6.800000000000001
8480,-6.1000000000000005,-3.3000000000000003,6.7
8496,-6.1000000000000005,-3.3000000000000003,6.7
8512,-6.1000000000000005,-3.3000000000000003,6.7
8528,-6.1000000000000005,-3.3000000000000003,6.7
8544,-6.1000000000000005,-3.3000000000000003,6.7
8560,-6.1000000000000005,-3.3000000000000003,6.7
8576,-6.1000000000000005,-3.3000000000000003,6.7
8592,-6.1000000000000005,-3.3000000000000003,6.7
8608,-6.1000000000000005,-3.3000000000000003,6.7
8624,-6.1000000000000005,-3.3000000000000003,6.800000000000001
8640,-6.1000000000000005,-3.3000000000000003,6.800000000000001
8656,-6.1000000000000005,-3.3000000000000003,6.800000000000001
8672,-6.1000000000000005,-3.3000000000000003,6.800000000000001
8688,-6.1000000000000005,-3.3000000000000003,6.7
8704,-6.1000000000000005,-3.3000000000000003,6.7
8720,-6.1000000000000005,-3.3000000000000003,6.7
8736,-6.1000000000000005,-3.3000000000000003,6.7
8752,-6.1000000000000005,-3.3000000000000003,6.800000000000001
8768,-6.1000000000000005,-3.3000000000000003,6.7
8784,-6.1000000000000005,-3.3000000000000003,6.7
8800,-6.1000000000000005,-3.3000000000000003,6.800000000000001
8816,-6.1000000000000005,-3.3000000000000003,6.800000000000001
8832,-6.1000000000000005,-3.3000000000000003,6.800000000000001
8848,-6.1000000000000005,-3.3000000000000003,6.800000000000001
8864,-6.1000000000000005,-3.3000000000000003,6.800000000000001
8880,-6.1000000000000005,-3.3000000000000003,6.800000000000001
8896,-6.1000000000000005,-3.3000000000000003,6.800000000000001
8912,-6.1000000000000005,-3.3000000000000003,6.800000000000001
8928,-6.1000000000000005,-3.3000000000000003,6.7
8944,-6.1000000000000005,-3.3000000000000003,6.7
8960,-6.1000000000000005,-3.3000000000000003,6.7
8976,-6.1000000000000005,-3.3000000000000003,6.7
8992,-6.1000000000000005,-3.3000000000000003,6.7
9008,-6.1000000000000005,-3.3000000000000003,6.7
9024,-6.1000000000000005,-3.3000000000000003,6.7
9040,-6.1000000000000005,-3.3000000000000003,6.800000000000001
9056,-6.1000000000000005,-3.3000000000000003,6.800000000000001
9072,-6.1000000000000005,-3.3000000000000003,6.800000000000001
9088,-6.1000000000000005,-3.3000000000000003,6.800000000000001
9104,-6.1000000000000005,-3.3000000000000003,6.800000000000001
9120,-6.1000000000000005,-3.3000000000000003,6.800000000000001
9136,-6.1000000000000005,-3.3000000000000003,6.7
9152,-6.1000000000000005,-3.3000000000000003,6.7
9168,-6.1000000000000005,-3.3000000000000003,6.7
9184,-6.1000000000000005,-3.3000000000000003,6.7
9200,-6.1000000000000005,-3.3000000000000003,6.7
9216,-6.1000000000000005,-3.3000000000000003,6.800000000000001
9232,-6.1000000000000005,-3.3000000000000003,6.800000000000001
9248,-6.1000000000000005,-3.3000000000000003,6.800000000000001
9264,-6.1000000000000005,-3.3000000000000003,6.7
9280,-6.1000000000000005,-3.3000000000000003,6.7
9296,-6.1000000000000005,-3.3000000000000003,6.7
9312,-6.1000000000000005,-3.3000000000000003,6.7
9328,-6.1000000000000005,-3.3000000000000003,6.7
9344,-6.1000000000000005,-3.3000000000000003,6.800000000000001
9360,-6.1000000000000005,-3.3000000000000003,6.800000000000001
9376,-6.1000000000000005,-3.3000000000000003,6.800000000000001
9392,-6.1000000000000005,-3.3000000000000003,6.7
9408,-6.1000000000000005,-3.3000000000000003,6.800000000000001
9424,-6.1000000000000005,-3.3000000000000003,6.800000000000001
9440,-6.1000000000000005,-3.3000000000000003,6.800000000000001
9456,-6.1000000000000005,-3.3000000000000003,6.800000000000001
9472,-6.1000000000000005,-3.3000000000000003,6.800000000000001
9488,-6.1000000000000005,-3.3000000000000003,6.800000000000001
9504,-6.1000000000000005,-3.3000000000000003,6.7
9520,-6.1000000000000005,-3.3000000000000003,6.7
9536,-6.1000000000000005,-3.3000000000000003,6.7
9552,-6.1000000000000005,-3.3000000000000003,6.7
9568,-6.1000000000000005,-3.3000000000000003,6.7
9584,-6.1000000000000005,-3.3000000000000003,6.800000000000001
9600,-6.1000000000000005,-3.3000000000000003,6.800000000000001
9616,-6.1000000000000005,-3.3000000000000003,6.800000000000001
9632,-6.1000000000000005,-3.3000000000000003,6.800000000000001
9648,-6.1000000000000005,-3.3000000000000003,6.800000000000001
9664,-6.1000000000000005,-3.3000000000000003,6.800000000000001
9680,-6.1000000000000005,-3.3000000000000003,6.800000000000001
9696,-6.1000000000000005,-3.3000000000000003,6.800000000000001
9712,-6.1000000000000005,-3.3000000000000003,6.7
9728,-6.1000000000000005,-3.3000000000000003,6.800000000000001
9744,-6.1000000000000005,-3.3000000000000003,6.800000000000001
9760,-6.1000000000000005,-3.3000000000000003,6.800000000000001
9776,-6.1000000000000005,-3.3000000000000003,6.800000000000001
9792,-6.1000000000000005,-3.3000000000000003,6.800000000000001
9808,-6.1000000000000005,-3.3000000000000003,6.7
9824,-6.1000000000000005,-3.3000000000000003,6.800000000000001
9840,-6.1000000000000005,-3.3000000000000003,6.800000000000001
9856,-6.1000000000000005,-3.3000000000000003,6.7
9872,-6.1000000000000005,-3.3000000000000003,6.7
9888,-6.1000000000000005,-3.3000000000000003,6.7
9904,-6.1000000000000005,-3.3000000000000003,6.7
9920,-6.1000000000000005,-3.3000000000000003,6.7
9936,-6.1000000000000005,-3.3000000000000003,6.800000000000001
9952,-6.1000000000000005,-3.3000000000000003,6.800000000000001
9968,-6.1000000000000005,-3.3000000000000003,6.800000000000001
9984,-6.1000000000000005,-3.3000000000000003,6.7
