timestamp,accX,accY,accZ
0,1.4000000000000001,-10.8,2.8000000000000003
16,1.5,-9.4,3.4000000000000004
32,1.3,-8.3,3.2
48,1.3,-7.7,2.9000000000000004
64,3.6,-5.4,3.8000000000000003
80,3.6,-5.4,3.8000000000000003
96,3.5,-5.800000000000001,2.6
112,2.4000000000000004,-6.300000000000001,2.2
128,1.9000000000000001,-5.5,4.1000000000000005
144,2.1,-5.5,5.6000000000000005
160,2.0,-6.2,5.1000000000000005
176,1.8,-6.7,5.5
192,1.5,-6.6000000000000005,5.6000000000000005
208,2.0,-6.6000000000000005,5.1000000000000005
224,2.0,-6.6000000000000005,5.1000000000000005
240,2.9000000000000004,-6.800000000000001,4.6000000000000005
256,3.5,-7.1000000000000005,4.5
272,3.7,-7.5,4.4
288,4.0,-7.6000000000000005,4.6000000000000005
304,3.5,-7.2,4.9
320,2.1,-6.4,5.2
336,1.3,-6.1000000000000005,5.300000000000001
352,1.5,-6.0,5.4
368,2.3000000000000003,-6.5,5.7
384,3.3000000000000003,-7.0,5.7
400,4.1000000000000005,-7.0,5.6000000000000005
416,4.6000000000000005,-6.1000000000000005,5.5
432,4.5,-5.0,5.4
448,4.2,-4.3,5.1000000000000005
464,4.0,-4.4,5.2
480,3.8000000000000003,-4.800000000000001,5.4
496,4.2,-5.2,5.6000000000000005
512,5.2,-5.2,6.4
528,5.300000000000001,-5.300000000000001,6.9
544,4.9,-5.300000000000001,6.7
560,4.9,-5.6000000000000005,6.6000000000000005
576,4.7,-5.6000000000000005,6.9
592,5.5,-5.7,6.6000000000000005
608,7.7,-8.200000000000001,6.0
624,7.7,-8.200000000000001,6.0
640,10.0,-10.600000000000001,7.5
656,10.100000000000001,-10.9,10.200000000000001
672,9.200000000000001,-9.600000000000001,10.8
688,6.7,-9.1,5.2
704,2.0,-8.200000000000001,3.6
720,1.2000000000000002,-7.800000000000001,5.4
736,3.6,-8.200000000000001,4.3
752,4.2,-7.7,6.5
768,2.4000000000000004,-6.7,7.5
784,0.6000000000000001,-6.300000000000001,6.0
800,-0.2,-6.0,4.800000000000001
816,0.5,-6.300000000000001,4.800000000000001
832,1.6,-7.6000000000000005,5.0
848,2.7,-8.8,4.9
864,3.1,-9.5,5.2
880,2.9000000000000004,-9.5,4.6000000000000005
896,2.4000000000000004,-8.4,4.9
912,2.3000000000000003,-7.0,5.9
928,2.3000000000000003,-6.800000000000001,4.5
944,2.4000000000000004,-7.4,3.5
960,2.2,-8.5,3.6
976,1.7000000000000002,-9.5,3.4000000000000004
992,1.3,-9.5,4.2
1008,0.7000000000000001,-8.8,4.9
1024,0.7000000000000001,-8.8,4.9
1040,0.7000000000000001,-8.200000000000001,4.1000000000000005
1056,1.3,-7.9,2.7
1072,1.1,-7.300000000000001,3.9000000000000004
1088,1.1,-6.4,4.1000000000000005
1104,1.3,-6.1000000000000005,4.4
1120,1.6,-6.300000000000001,4.2
1136,1.5,-6.300000000000001,3.5
1152,2.4000000000000004,-6.9,3.6
1168,2.4000000000000004,-6.9,3.6
1184,2.6,-7.300000000000001,3.5
1200,2.8000000000000003,-7.5,3.2
1216,2.9000000000000004,-7.7,3.1
1232,2.2,-8.1,3.6
1248,1.5,-8.4,3.8000000000000003
1264,1.1,-8.9,3.5
1280,0.8,-9.4,3.4000000000000004
1296,0.8,-9.8,3.7
1312,1.0,-10.100000000000001,4.1000000000000005
1328,1.8,-10.4,3.9000000000000004
1344,2.8000000000000003,-11.0,3.3000000000000003
1360,3.1,-12.0,2.3000000000000003
1376,2.6,-13.200000000000001,2.3000000000000003
1392,2.0,-14.0,3.3000000000000003
1408,2.3000000000000003,-12.600000000000001,3.1
1424,2.3000000000000003,-12.600000000000001,3.1
1440,3.4000000000000004,-9.8,3.4000000000000004
1456,4.800000000000001,-7.5,4.3
1472,7.0,-6.300000000000001,5.1000000000000005
1488,6.6000000000000005,-7.800000000000001,5.6000000000000005
1504,4.6000000000000005,-9.0,5.5
1520,3.5,-8.8,5.1000000000000005
1536,3.3000000000000003,-8.700000000000001,4.9
1552,3.1,-9.3,5.0
1568,2.9000000000000004,-10.100000000000001,4.800000000000001
1584,2.5,-10.5,3.6
1600,2.0,-10.100000000000001,3.4000000000000004
1616,2.4000000000000004,-8.9,3.5
1632,3.1,-7.9,3.2
1648,2.8000000000000003,-7.5,2.9000000000000004
1664,2.5,-7.2,3.7
1680,3.1,-6.4,4.3
1696,3.8000000000000003,-5.5,5.0
1712,3.4000000000000004,-5.6000000000000005,2.7
1728,3.0,-5.7,2.7
1744,3.4000000000000004,-6.0,4.1000000000000005
1760,3.5,-6.4,5.6000000000000005
1776,3.1,-6.800000000000001,5.1000000000000005
1792,2.7,-6.9,4.3
1808,2.8000000000000003,-6.4,3.7
1824,2.8000000000000003,-6.4,3.7
1840,2.8000000000000003,-6.4,3.7
1856,3.1,-6.4,3.9000000000000004
1872,3.3000000000000003,-6.2,4.1000000000000005
1888,3.3000000000000003,-6.1000000000000005,4.3
1904,3.1,-6.1000000000000005,4.5
1920,2.6,-6.0,4.9
1936,2.2,-6.1000000000000005,5.300000000000001
1952,2.1,-6.0,5.5
1968,3.0,-5.5,5.2
1984,3.6,-5.2,5.1000000000000005
2000,2.9000000000000004,-5.4,5.2
2016,2.5,-5.4,5.5
2032,3.3000000000000003,-5.4,5.800000000000001
2048,3.6,-5.1000000000000005,5.800000000000001
2064,3.2,-4.6000000000000005,5.7
2080,2.9000000000000004,-4.1000000000000005,5.0
2096,3.4000000000000004,-3.9000000000000004,4.3
2112,10.0,-10.600000000000001,13.9
2128,10.0,-10.600000000000001,13.9
2144,10.4,-17.1,12.600000000000001
2160,8.6,-16.0,0.8
2176,4.5,-9.600000000000001,1.5
2192,3.3000000000000003,-2.6,10.200000000000001
2208,5.1000000000000005,-3.9000000000000004,6.800000000000001
2224,5.1000000000000005,-3.9000000000000004,6.800000000000001
2240,4.800000000000001,-8.700000000000001,10.200000000000001
2256,2.7,-10.3,8.8
2272,2.8000000000000003,-9.4,3.5
2288,3.4000000000000004,-8.0,4.7
2304,2.5,-8.5,8.5
2320,2.1,-9.8,8.3
2336,2.1,-10.700000000000001,5.6000000000000005
2352,2.4000000000000004,-9.700000000000001,5.4
2368,2.8000000000000003,-8.6,7.800000000000001
2384,3.0,-8.700000000000001,6.0
2400,3.0,-8.8,3.1
2416,2.7,-6.7,5.800000000000001
2432,2.7,-6.7,5.800000000000001
2448,1.4000000000000001,-6.1000000000000005,4.5
2464,0.1,-5.7,4.800000000000001
2480,-0.30000000000000004,-5.300000000000001,4.1000000000000005
2496,0.0,-4.9,3.7
2512,0.4,-4.3,4.1000000000000005
2528,0.7000000000000001,-4.3,4.0
2544,1.0,-5.0,3.8000000000000003
2560,1.8,-5.9,3.4000000000000004
2576,2.8000000000000003,-7.1000000000000005,3.2
2592,3.0,-8.1,3.2
2608,2.7,-8.1,3.0
2624,2.7,-8.1,3.0
2640,2.4000000000000004,-8.4,2.5
2656,1.4000000000000001,-8.8,2.9000000000000004
2672,0.6000000000000001,-8.8,3.5
2688,0.8,-9.0,3.1
2704,1.6,-8.8,2.9000000000000004
2720,1.9000000000000001,-8.4,3.3000000000000003
2736,1.8,-8.4,3.1
2752,1.2000000000000002,-8.8,2.5
2768,0.5,-9.0,2.2
2784,0.1,-9.1,2.4000000000000004
2800,0.0,-9.4,2.7
2816,0.0,-9.600000000000001,2.8000000000000003
2832,0.7000000000000001,-10.0,2.6
2848,1.4000000000000001,-10.9,2.6
2864,1.4000000000000001,-12.3,2.4000000000000004
2880,0.7000000000000001,-14.100000000000001,2.4000000000000004
2896,-1.0,-14.600000000000001,2.9000000000000004
2912,-1.0,-14.600000000000001,2.9000000000000004
2928,-0.6000000000000001,-11.9,1.7000000000000002
2944,0.1,-9.3,1.7000000000000002
2960,1.1,-7.300000000000001,3.7
2976,3.0,-6.2,5.6000000000000005
2992,5.6000000000000005,-5.5,7.7
3008,6.1000000000000005,-6.0,7.9
3024,6.1000000000000005,-6.0,7.9
3040,4.4,-7.6000000000000005,6.2
3056,2.9000000000000004,-9.9,4.5
3072,2.2,-11.200000000000001,3.7
3088,2.1,-11.0,3.7
3104,2.1,-10.700000000000001,3.7
3120,2.4000000000000004,-10.600000000000001,2.6
3136,3.3000000000000003,-9.200000000000001,1.3
3152,3.6,-7.4,2.5
3168,3.1,-6.5,4.3
3184,2.2,-5.9,4.6000000000000005
3200,2.0,-5.9,3.8000000000000003
3216,1.8,-6.6000000000000005,2.9000000000000004
3232,2.2,-6.5,3.5
3248,2.9000000000000004,-5.9,3.9000000000000004
3264,3.2,-6.0,3.5
3280,2.6,-6.6000000000000005,4.4
3296,1.9000000000000001,-7.1000000000000005,5.2
3312,1.4000000000000001,-7.6000000000000005,5.1000000000000005
3328,1.2000000000000002,-8.0,4.5
3344,1.5,-8.0,4.4
3360,2.2,-7.7,4.1000000000000005
3376,3.1,-7.300000000000001,3.8000000000000003
3392,3.8000000000000003,-6.800000000000001,4.0
3408,3.8000000000000003,-6.2,4.0
3424,3.8000000000000003,-6.2,4.0
3440,3.3000000000000003,-6.2,5.0
3456,2.5,-6.5,6.2
3472,2.6,-6.0,5.9
3488,2.9000000000000004,-5.0,4.9
3504,3.0,-4.2,5.4
3520,3.2,-4.4,6.7
3536,3.5,-5.2,6.2
3552,3.5,-6.300000000000001,4.3
3568,3.5,-6.5,4.3
3584,4.6000000000000005,-6.800000000000001,10.100000000000001
3600,8.0,-8.8,18.1
3616,10.3,-12.100000000000001,10.600000000000001
3632,6.4,-16.2,-6.800000000000001
3648,4.7,-9.5,8.200000000000001
3664,6.300000000000001,-6.5,10.5
3680,5.2,-8.3,6.2
3696,2.1,-8.3,7.1000000000000005
3712,1.2000000000000002,-7.2,5.5
3728,1.0,-6.7,5.0
3744,0.9,-7.5,6.5
3760,1.1,-9.5,6.7
3776,1.8,-10.700000000000001,4.6000000000000005
3792,2.4000000000000004,-10.700000000000001,3.2
3808,2.8000000000000003,-7.2,5.2
3824,2.8000000000000003,-7.2,5.2
3840,2.8000000000000003,-7.2,5.2
3856,2.7,-6.1000000000000005,5.5
3872,2.4000000000000004,-5.7,3.0
3888,2.0,-5.6000000000000005,3.0
3904,1.3,-5.9,4.0
3920,0.7000000000000001,-6.7,3.4000000000000004
3936,0.7000000000000001,-7.5,4.3
3952,1.2000000000000002,-7.9,3.5
3968,1.1,-8.0,2.7
3984,1.3,-7.4,3.4000000000000004
4000,1.4000000000000001,-6.9,3.1
4016,1.3,-6.800000000000001,3.1
4032,1.4000000000000001,-7.300000000000001,3.1
4048,1.4000000000000001,-8.3,3.2
4064,1.4000000000000001,-8.3,3.2
4080,1.5,-8.700000000000001,3.4000000000000004
4096,1.3,-8.4,3.3000000000000003
4112,1.2000000000000002,-8.3,3.2
4128,0.9,-8.8,3.3000000000000003
4144,0.5,-9.3,3.0
4160,0.30000000000000004,-9.200000000000001,2.8000000000000003
4176,0.2,-8.9,3.3000000000000003
4192,0.0,-9.0,3.4000000000000004
4208,-0.2,-9.9,4.0
4224,-0.2,-9.9,4.0
4240,1.1,-10.4,4.6000000000000005
4256,1.1,-10.4,4.6000000000000005
4272,1.7000000000000002,-10.4,4.800000000000001
4288,2.5,-10.700000000000001,4.1000000000000005
4304,3.3000000000000003,-10.700000000000001,2.6
4320,3.0,-11.8,2.1
4336,2.7,-13.100000000000001,2.3000000000000003
4352,2.4000000000000004,-12.9,2.6
4368,2.6,-10.5,2.6
4384,3.5,-7.5,3.0
4400,4.800000000000001,-5.7,2.7
4416,6.300000000000001,-5.0,4.2
4432,5.9,-6.2,5.0
4448,2.5,-9.200000000000001,4.9
4464,0.6000000000000001,-10.8,4.4
4480,0.5,-11.100000000000001,4.6000000000000005
4496,1.3,-11.100000000000001,5.2
4512,2.3000000000000003,-11.3,4.2
4528,3.0,-10.700000000000001,2.6
4544,2.5,-9.700000000000001,0.8
4560,1.3,-8.6,1.8
4576,1.4000000000000001,-6.4,3.9000000000000004
4592,2.7,-4.800000000000001,4.4
4608,3.6,-5.2,2.5
4624,3.6,-5.2,2.5
4640,4.800000000000001,-6.4,3.3000000000000003
4656,4.7,-8.200000000000001,4.4
4672,4.3,-8.700000000000001,5.1000000000000005
4688,3.4000000000000004,-8.4,5.5
4704,2.5,-7.6000000000000005,5.4
4720,1.8,-6.7,5.2
4736,1.2000000000000002,-6.2,4.7
4752,1.2000000000000002,-5.800000000000001,4.3
4768,1.6,-5.7,4.1000000000000005
4784,1.8,-5.9,3.9000000000000004
4800,2.0,-5.800000000000001,3.6
4816,2.3000000000000003,-5.6000000000000005,3.9000000000000004
4832,2.8000000000000003,-5.2,4.3
4848,3.3000000000000003,-4.7,4.800000000000001
4864,2.9000000000000004,-4.4,5.6000000000000005
4880,2.7,-4.7,6.4
4896,4.1000000000000005,-5.800000000000001,3.8000000000000003
4912,4.1000000000000005,-5.800000000000001,3.8000000000000003
4928,5.1000000000000005,-5.1000000000000005,3.8000000000000003
4944,6.2,-6.0,10.4
4960,5.300000000000001,-10.5,15.700000000000001
4976,5.4,-8.200000000000001,10.4
4992,5.0,-6.2,2.1
5008,5.6000000000000005,-5.4,2.5
5024,5.6000000000000005,-5.4,2.5
5040,7.0,-7.2,6.2
5056,4.4,-9.5,10.5
5072,2.6,-10.3,9.0
5088,2.2,-9.700000000000001,4.6000000000000005
5104,2.7,-9.0,5.2
5120,3.0,-9.9,7.7
5136,2.7,-12.100000000000001,6.0
5152,2.7,-12.100000000000001,6.0
5168,2.6,-11.5,4.7
5184,2.2,-10.0,5.300000000000001
5200,2.1,-8.6,6.7
5216,1.7000000000000002,-8.1,6.300000000000001
5232,1.3,-8.1,3.2
5248,1.5,-8.0,3.8000000000000003
5264,1.3,-7.5,5.0
5280,0.6000000000000001,-6.7,5.1000000000000005
5296,0.0,-5.800000000000001,4.1000000000000005
5312,-0.7000000000000001,-5.7,3.5
5328,-1.5,-6.2,3.5
5344,-0.6000000000000001,-6.0,4.6000000000000005
5360,0.5,-6.0,3.9000000000000004
5376,1.2000000000000002,-6.2,3.6
5392,1.8,-6.2,4.3
5408,2.3000000000000003,-6.0,3.4000000000000004
5424,2.3000000000000003,-6.0,3.4000000000000004
5440,2.3000000000000003,-6.1000000000000005,2.7
5456,2.3000000000000003,-6.5,3.0
5472,2.2,-7.1000000000000005,3.1
5488,1.8,-7.4,3.2
5504,1.3,-7.6000000000000005,3.4000000000000004
5520,1.1,-8.0,3.5
5536,1.0,-8.6,3.6
5552,0.9,-9.0,3.7
5568,0.8,-9.4,3.6
5584,0.5,-10.200000000000001,4.1000000000000005
5600,1.0,-10.700000000000001,4.6000000000000005
5616,1.8,-11.100000000000001,4.5
5632,2.3000000000000003,-11.4,3.9000000000000004
5648,2.4000000000000004,-11.8,2.8000000000000003
5664,2.3000000000000003,-12.9,1.2000000000000002
5680,2.7,-13.700000000000001,0.2
5696,3.2,-13.0,0.4
5712,2.0,-10.3,0.9
5728,0.6000000000000001,-7.5,5.9
5744,1.4000000000000001,-5.800000000000001,9.1
5760,5.2,-4.3,6.0
5776,6.2,-4.0,4.0
5792,2.3000000000000003,-9.4,5.0
5808,2.3000000000000003,-9.4,5.0
5824,2.3000000000000003,-9.4,5.0
5840,2.9000000000000004,-11.4,5.7
5856,2.2,-13.5,6.300000000000001
5872,1.6,-15.0,4.0
5888,1.9000000000000001,-13.3,1.1
5904,1.7000000000000002,-10.700000000000001,1.0
5920,1.2000000000000002,-8.5,2.5
5936,1.3,-6.7,2.9000000000000004
5952,2.5,-5.300000000000001,2.7
5968,3.1,-5.7,1.7000000000000002
5984,3.9000000000000004,-6.0,2.7
6000,4.4,-6.5,4.0
6016,4.5,-6.800000000000001,4.4
6032,3.8000000000000003,-7.1000000000000005,5.0
6048,2.7,-7.5,5.4
6064,1.5,-7.300000000000001,5.2
6080,0.7000000000000001,-7.0,4.7
6096,0.7000000000000001,-6.9,4.3
6112,1.4000000000000001,-6.800000000000001,4.0
6128,2.5,-6.5,4.2
6144,3.1,-6.1000000000000005,3.9000000000000004
6160,3.1,-5.300000000000001,4.9
6176,3.1,-5.300000000000001,4.9
6192,2.7,-5.300000000000001,5.300000000000001
6208,2.6,-5.300000000000001,5.6000000000000005
6224,2.6,-5.300000000000001,5.6000000000000005
6240,3.1,-5.0,6.300000000000001
6256,4.1000000000000005,-4.5,5.800000000000001
6272,4.4,-4.800000000000001,4.5
6288,4.6000000000000005,-5.9,3.8000000000000003
6304,4.6000000000000005,-5.9,3.8000000000000003
6320,4.3,-5.800000000000001,8.1
6336,5.7,-9.1,15.100000000000001
6352,6.7,-13.4,13.600000000000001
6368,6.4,-15.200000000000001,3.1
6384,3.8000000000000003,-10.700000000000001,-0.2
6400,4.4,-5.800000000000001,4.3
6416,4.7,-5.1000000000000005,11.100000000000001
6432,4.0,-7.5,9.5
6448,2.6,-8.9,4.800000000000001
6464,1.9000000000000001,-8.3,4.3
6480,2.0,-7.4,7.7
6496,2.1,-8.200000000000001,7.800000000000001
6512,2.2,-9.4,5.4
6528,3.0,-9.600000000000001,4.7
6544,3.3000000000000003,-8.5,4.9
6560,3.1,-7.4,5.6000000000000005
6576,2.9000000000000004,-6.9,6.5
6592,2.6,-7.5,3.3000000000000003
6608,2.6,-7.5,3.3000000000000003
6624,2.6,-7.5,3.3000000000000003
6640,2.0,-7.5,5.0
6656,1.3,-7.7,4.3
6672,0.2,-8.200000000000001,4.3
6688,-0.2,-8.0,4.800000000000001
6704,0.0,-7.4,3.8000000000000003
6720,0.1,-6.800000000000001,3.7
6736,0.6000000000000001,-6.0,3.6
6752,0.8,-6.0,3.1
6768,0.9,-6.7,3.2
6784,1.0,-7.1000000000000005,3.2
6800,1.8,-7.5,2.7
6816,2.5,-8.1,2.9000000000000004
6832,2.5,-7.800000000000001,4.0
6848,2.0,-7.1000000000000005,4.0
6864,2.0,-6.9,3.7
6880,2.2,-7.5,3.7
6896,1.9000000000000001,-8.4,3.7
6912,1.2000000000000002,-8.5,3.7
6928,0.9,-8.8,3.9000000000000004
6944,0.9,-9.3,3.9000000000000004
6960,1.2000000000000002,-9.9,3.8000000000000003
6976,1.5,-10.8,3.8000000000000003
6992,1.5,-11.600000000000001,4.6000000000000005
7008,1.2000000000000002,-12.200000000000001,6.0
7024,1.2000000000000002,-12.200000000000001,6.0
7040,3.3000000000000003,-12.200000000000001,2.9000000000000004
7056,4.2,-12.700000000000001,1.1
7072,1.9000000000000001,-14.700000000000001,5.9
7088,1.9000000000000001,-14.700000000000001,5.9
7104,3.3000000000000003,-9.5,6.2
7120,5.300000000000001,-4.7,6.9
7136,7.1000000000000005,-3.0,7.2
7152,6.2,-4.1000000000000005,5.7
7168,3.5,-7.5,6.4
7184,1.2000000000000002,-11.600000000000001,7.1000000000000005
7200,0.30000000000000004,-13.8,6.300000000000001
7216,1.0,-12.700000000000001,5.5
7232,2.0,-11.8,4.3
7248,3.3000000000000003,-9.3,-0.2
7264,2.9000000000000004,-7.800000000000001,0.6000000000000001
7280,2.9000000000000004,-7.800000000000001,0.6000000000000001
7296,3.8000000000000003,-4.9,1.7000000000000002
7312,4.2,-3.5,1.1
7328,3.1,-3.6,1.1
7344,3.8000000000000003,-4.0,2.3000000000000003
7360,3.8000000000000003,-5.800000000000001,3.0
7376,3.3000000000000003,-7.0,5.6000000000000005
7392,2.4000000000000004,-7.1000000000000005,6.6000000000000005
7408,0.9,-6.800000000000001,6.9
7424,0.9,-6.800000000000001,6.9
7440,-0.1,-6.4,6.1000000000000005
7456,-0.4,-6.2,4.7
7472,0.1,-6.300000000000001,3.5
7488,1.4000000000000001,-6.300000000000001,3.4000000000000004
7504,2.8000000000000003,-6.4,4.0
7520,3.5,-6.5,3.9000000000000004
7536,3.8000000000000003,-6.5,3.9000000000000004
7552,3.5,-6.300000000000001,4.9
7568,3.2,-5.800000000000001,6.5
7584,3.6,-4.9,6.9
7600,4.1000000000000005,-4.5,5.800000000000001
7616,5.300000000000001,-5.5,3.9000000000000004
7632,5.300000000000001,-5.5,3.9000000000000004
7648,5.6000000000000005,-6.0,5.6000000000000005
7664,6.300000000000001,-7.4,10.600000000000001
7680,5.9,-11.4,15.3
7696,5.9,-13.4,7.2
7712,4.800000000000001,-12.100000000000001,-1.9000000000000001
7728,3.9000000000000004,-8.4,2.4000000000000004
7744,5.0,-6.9,7.9
7760,4.3,-7.300000000000001,11.100000000000001
7776,3.1,-8.8,8.3
7792,1.8,-9.4,3.6
7808,1.8,-9.4,3.6
7824,1.6,-8.1,4.5
7840,2.4000000000000004,-8.200000000000001,7.300000000000001
7856,3.2,-9.5,7.1000000000000005
7872,3.4000000000000004,-10.600000000000001,5.0
7888,3.0,-10.0,4.2
7904,2.4000000000000004,-8.3,4.9
7920,2.3000000000000003,-7.1000000000000005,6.4
7936,2.3000000000000003,-7.2,5.0
7952,2.2,-7.800000000000001,2.9000000000000004
7968,2.1,-8.0,3.5
7984,2.0,-7.7,4.800000000000001
8000,1.8,-7.2,4.9
8016,1.4000000000000001,-6.800000000000001,4.2
8032,1.2000000000000002,-6.4,4.800000000000001
8048,1.2000000000000002,-6.6000000000000005,3.9000000000000004
8064,1.6,-6.5,3.2
8080,1.7000000000000002,-6.4,3.7
8096,1.4000000000000001,-6.4,4.0
8112,1.0,-6.800000000000001,4.0
8128,0.9,-6.800000000000001,4.1000000000000005
8144,1.5,-6.800000000000001,4.0
8160,1.7000000000000002,-7.1000000000000005,3.3000000000000003
8176,1.8,-7.4,3.4000000000000004
8192,2.0,-7.5,3.7
8208,2.1,-7.4,3.5
8224,2.1,-7.4,3.5
8240,2.2,-7.6000000000000005,3.5
8256,1.9000000000000001,-7.9,3.7
8272,1.5,-8.3,4.1000000000000005
8288,1.3,-8.6,4.5
8304,1.7000000000000002,-9.200000000000001,4.800000000000001
8320,2.5,-10.100000000000001,5.1000000000000005
8336,4.5,-11.0,6.1000000000000005
8352,4.5,-11.0,6.1000000000000005
8368,5.4,-11.700000000000001,4.9
8384,6.2,-12.4,3.3000000000000003
8400,2.9000000000000004,-11.600000000000001,3.8000000000000003
8416,2.9000000000000004,-11.600000000000001,3.8000000000000003
8432,0.4,-10.4,5.6000000000000005
8448,1.1,-7.4,4.7
8464,3.2,-4.800000000000001,5.4
8480,4.3,-3.8000000000000003,6.1000000000000005
8496,4.7,-4.9,6.4
8512,4.2,-8.6,6.7
8528,3.0,-12.200000000000001,5.7
8544,2.0,-13.100000000000001,4.0
8560,1.5,-13.5,3.0
8576,2.0,-12.5,2.3000000000000003
8592,3.0,-10.8,1.4000000000000001
8608,3.4000000000000004,-9.5,1.7000000000000002
8624,3.4000000000000004,-9.5,1.7000000000000002
8640,3.3000000000000003,-8.200000000000001,1.4000000000000001
8656,2.8000000000000003,-7.0,1.7000000000000002
8672,2.2,-5.800000000000001,3.0
8688,1.8,-4.7,3.5
8704,2.1,-4.5,3.9000000000000004
8720,2.5,-5.2,3.7
8736,2.6,-5.9,3.9000000000000004
8752,2.7,-6.6000000000000005,4.6000000000000005
8768,2.4000000000000004,-7.1000000000000005,5.2
8784,2.3000000000000003,-7.5,4.5
8800,2.1,-7.7,3.7
8816,2.0,-7.800000000000001,3.2
8832,2.4000000000000004,-7.6000000000000005,3.0
8848,2.8000000000000003,-7.300000000000001,3.3000000000000003
8864,2.9000000000000004,-7.2,3.9000000000000004
8880,2.8000000000000003,-7.4,4.800000000000001
8896,2.7,-7.5,5.6000000000000005
8912,2.5,-7.300000000000001,5.9
8928,2.2,-6.800000000000001,6.0
8944,2.2,-6.6000000000000005,6.2
8960,2.9000000000000004,-6.1000000000000005,6.7
8976,3.7,-5.2,5.7
8992,4.2,-4.800000000000001,3.8000000000000003
9008,4.9,-4.9,2.7
9024,4.9,-4.9,2.7
9040,4.800000000000001,-5.2,4.6000000000000005
9056,3.8000000000000003,-5.9,5.2
9072,3.0,-6.2,6.2
9088,4.1000000000000005,-6.9,13.200000000000001
9104,7.1000000000000005,-10.100000000000001,16.900000000000002
9120,8.6,-14.0,9.600000000000001
9136,5.4,-13.700000000000001,1.4000000000000001
9152,2.4000000000000004,-9.0,2.3000000000000003
9168,2.6,-5.300000000000001,6.5
9184,2.9000000000000004,-4.800000000000001,9.3
9200,3.1,-6.9,8.3
9216,2.0,-9.1,5.1000000000000005
9232,0.6000000000000001,-9.600000000000001,4.5
9248,0.30000000000000004,-9.5,5.9
9264,1.2000000000000002,-10.0,5.7
9280,2.3000000000000003,-9.700000000000001,5.300000000000001
9296,2.7,-7.300000000000001,5.1000000000000005
9312,2.7,-7.300000000000001,5.1000000000000005
9328,2.4000000000000004,-6.7,4.5
9344,2.1,-6.800000000000001,4.5
9360,1.8,-7.300000000000001,4.1000000000000005
9376,1.3,-7.800000000000001,3.9000000000000004
9392,0.8,-7.9,4.4
9408,0.5,-7.5,4.2
9424,0.5,-7.5,4.2
9440,0.6000000000000001,-6.7,3.5
9456,0.6000000000000001,-6.7,3.5
9472,0.9,-6.7,3.5
9488,1.0,-6.6000000000000005,2.9000000000000004
9504,0.7000000000000001,-7.2,2.8000000000000003
9520,1.0,-7.800000000000001,3.3000000000000003
9536,1.5,-7.9,3.3000000000000003
9552,1.6,-7.6000000000000005,3.2
9568,1.4000000000000001,-7.0,3.1
9584,1.5,-6.800000000000001,2.7
9600,1.7000000000000002,-7.1000000000000005,2.3000000000000003
9616,1.8,-7.7,2.1
9632,1.5,-7.800000000000001,2.9000000000000004
9648,1.4000000000000001,-7.5,3.5
9664,1.7000000000000002,-8.0,3.3000000000000003
9680,1.7000000000000002,-8.0,3.3000000000000003
9696,1.7000000000000002,-8.8,3.5
9712,1.6,-9.3,3.9000000000000004
9728,1.4000000000000001,-8.9,3.8000000000000003
9744,1.0,-8.6,3.9000000000000004
9760,0.7000000000000001,-9.5,5.800000000000001
9776,2.0,-11.5,5.5
9792,4.0,-13.600000000000001,2.9000000000000004
9808,4.2,-14.0,2.0
9824,4.2,-14.0,2.0
9840,2.9000000000000004,-13.8,4.0
9856,1.2000000000000002,-13.3,4.6000000000000005
9872,1.7000000000000002,-11.200000000000001,2.9000000000000004
9888,2.8000000000000003,-8.5,2.2
9904,4.0,-6.4,4.0
9920,4.4,-5.800000000000001,4.6000000000000005
9936,3.1,-7.1000000000000005,4.6000000000000005
9952,1.5,-9.1,4.4
9968,1.6,-10.200000000000001,4.1000000000000005
9984,1.8,-10.5,2.7
