timestamp,accX,accY,accZ
0,-2.8000000000000003,-8.9,2.2
16,-2.7,-9.0,2.2
32,-2.7,-9.0,2.2
48,-2.8000000000000003,-9.0,2.2
64,-2.8000000000000003,-8.9,2.2
80,-2.8000000000000003,-8.9,2.2
96,-2.8000000000000003,-8.9,2.2
112,-2.8000000000000003,-8.9,2.2
128,-2.6,-9.0,2.2
144,-2.6,-9.1,2.1
160,-2.6,-9.1,2.1
176,-2.6,-9.1,2.1
192,-2.6,-9.0,2.2
208,-2.6,-9.1,2.1
224,-2.6,-9.1,2.1
240,-2.4000000000000004,-9.1,2.1
256,-2.4000000000000004,-9.1,2.2
272,-2.4000000000000004,-9.1,2.2
288,-2.4000000000000004,-9.1,2.2
304,-2.3000000000000003,-9.0,2.3000000000000003
320,-2.4000000000000004,-9.0,2.3000000000000003
336,-2.4000000000000004,-9.0,2.3000000000000003
352,-2.4000000000000004,-9.0,2.3000000000000003
368,-2.5,-9.0,2.3000000000000003
384,-2.5,-9.0,2.3000000000000003
400,-2.5,-9.0,2.3000000000000003
416,-2.5,-9.1,2.3000000000000003
432,-2.5,-9.1,2.3000000000000003
448,-2.5,-9.1,2.3000000000000003
464,-2.5,-9.1,2.3000000000000003
480,-2.3000000000000003,-9.0,2.4000000000000004
496,-2.3000000000000003,-9.0,2.4000000000000004
512,-2.2,-9.0,2.3000000000000003
528,-2.2,-9.0,2.3000000000000003
544,-2.1,-9.1,2.2
560,-1.9000000000000001,-9.1,1.9000000000000001
576,-1.7000000000000002,-9.1,1.8
592,-1.7000000000000002,-9.1,1.8
608,-1.7000000000000002,-9.3,1.6
624,-1.8,-9.3,1.5
640,-1.8,-9.3,1.5
656,-2.0,-9.200000000000001,1.5
672,-2.3000000000000003,-9.200000000000001,1.4000000000000001
688,-2.3000000000000003,-9.3,1.3
704,-2.3000000000000003,-9.3,1.3
720,-2.1,-9.3,1.4000000000000001
736,-2.0,-9.200000000000001,1.4000000000000001
752,-2.0,-9.200000000000001,1.4000000000000001
768,-1.9000000000000001,-9.0,1.6
784,-2.2,-9.3,1.5
800,-2.0,-9.3,1.6
816,-2.0,-9.3,1.6
832,-1.9000000000000001,-9.8,2.0
848,-2.2,-9.5,2.5
864,-2.4000000000000004,-8.700000000000001,2.4000000000000004
880,-2.4000000000000004,-8.700000000000001,2.4000000000000004
896,-2.4000000000000004,-8.700000000000001,2.4000000000000004
912,-2.4000000000000004,-8.9,2.3000000000000003
928,-2.4000000000000004,-9.1,2.0
944,-2.3000000000000003,-9.1,1.8
960,-2.3000000000000003,-9.1,1.8
976,-2.2,-9.1,1.7000000000000002
992,-2.4000000000000004,-9.200000000000001,1.7000000000000002
1008,-2.4000000000000004,-9.200000000000001,1.7000000000000002
1024,-2.4000000000000004,-9.200000000000001,1.7000000000000002
1040,-1.9000000000000001,-9.200000000000001,1.8
1056,-1.8,-9.200000000000001,1.8
1072,-1.8,-9.200000000000001,1.8
1088,-1.6,-9.3,1.6
1104,-1.5,-9.4,1.5
1120,-1.5,-9.4,1.5
1136,-1.5,-9.4,1.6
1152,-1.6,-9.4,1.5
1168,-1.7000000000000002,-9.4,1.5
1184,-1.7000000000000002,-9.4,1.5
1200,-1.8,-9.3,1.6
1216,-1.8,-9.200000000000001,1.5
1232,-1.8,-9.200000000000001,1.5
1248,-1.7000000000000002,-9.200000000000001,1.4000000000000001
1264,-1.7000000000000002,-9.4,1.7000000000000002
1280,-1.7000000000000002,-9.4,1.7000000000000002
1296,-1.7000000000000002,-9.4,1.7000000000000002
1312,-1.7000000000000002,-9.4,1.7000000000000002
1328,-1.6,-9.4,1.6
1344,-1.6,-9.3,1.6
1360,-1.6,-9.3,1.4000000000000001
1376,-1.6,-9.3,1.4000000000000001
1392,-1.5,-9.3,1.5
1408,-1.5,-9.3,1.5
1424,-1.5,-9.3,1.5
1440,-1.5,-9.3,1.6
1456,-1.5,-9.3,1.5
1472,-1.4000000000000001,-9.4,1.5
1488,-1.4000000000000001,-9.4,1.5
1504,-1.3,-9.4,1.6
1520,-1.2000000000000002,-9.3,1.6
1536,-1.2000000000000002,-9.3,1.6
1552,-1.3,-9.3,1.6
1568,-1.2000000000000002,-9.3,1.6
1584,-1.2000000000000002,-9.3,1.8
1600,-1.2000000000000002,-9.3,1.8
1616,-1.3,-9.3,1.8
1632,-0.9,-9.5,1.7000000000000002
1648,-0.6000000000000001,-9.4,1.9000000000000001
1664,-0.6000000000000001,-9.4,1.9000000000000001
1680,-0.1,-9.600000000000001,2.1
1696,-0.1,-9.600000000000001,2.1
1712,0.0,-9.8,2.2
1728,0.0,-9.8,2.2
1744,0.0,-9.700000000000001,2.3000000000000003
1760,-0.30000000000000004,-9.200000000000001,2.3000000000000003
1776,-0.5,-9.3,2.3000000000000003
1792,-0.5,-9.3,2.3000000000000003
1808,-0.9,-9.5,2.0
1824,-1.1,-9.5,2.0
1840,-1.1,-9.4,2.0
1856,-1.1,-9.4,2.0
1872,-1.1,-9.3,2.0
1888,-1.2000000000000002,-9.4,2.2
1904,-1.2000000000000002,-9.3,2.4000000000000004
1920,-1.4000000000000001,-9.200000000000001,2.3000000000000003
1936,-1.4000000000000001,-9.1,2.1
1952,-1.3,-9.200000000000001,2.0
1968,-1.3,-9.200000000000001,2.0
1984,-1.2000000000000002,-9.4,1.8
2000,-1.1,-9.5,1.8
2016,-0.9,-9.4,1.8
2032,-0.9,-9.4,1.8
2048,-0.30000000000000004,-9.5,2.1
2064,0.0,-9.600000000000001,2.3000000000000003
2080,0.0,-9.600000000000001,2.3000000000000003
2096,0.0,-9.600000000000001,2.3000000000000003
2112,0.2,-9.600000000000001,2.3000000000000003
2128,0.0,-9.4,1.9000000000000001
2144,-0.5,-9.4,1.7000000000000002
2160,-0.5,-9.4,1.7000000000000002
2176,-1.4000000000000001,-9.5,1.3
2192,-1.6,-9.4,1.3
2208,-1.6,-9.4,1.3
2224,-1.7000000000000002,-9.200000000000001,1.3
2240,-1.9000000000000001,-9.0,1.5
2256,-1.7000000000000002,-9.1,1.6
2272,-1.7000000000000002,-9.1,1.6
2288,-1.5,-9.3,1.7000000000000002
2304,-1.0,-9.600000000000001,1.8
2320,-0.8,-9.5,1.9000000000000001
2336,-0.8,-9.5,1.9000000000000001
2352,-0.7000000000000001,-9.4,1.9000000000000001
2368,-0.7000000000000001,-9.3,1.8
2384,-0.7000000000000001,-9.3,1.8
2400,-0.6000000000000001,-9.4,1.7000000000000002
2416,-0.6000000000000001,-9.4,1.3
2432,-0.7000000000000001,-9.4,1.2000000000000002
2448,-0.7000000000000001,-9.4,1.2000000000000002
2464,-1.0,-9.5,1.1
2480,-1.5,-9.4,1.1
2496,-1.5,-9.4,1.1
2512,-1.5,-9.4,1.1
2528,-1.7000000000000002,-9.4,1.2000000000000002
2544,-1.5,-9.4,1.5
2560,-1.3,-9.4,1.6
2576,-1.3,-9.4,1.6
2592,-1.1,-9.3,1.7000000000000002
2608,-1.1,-9.3,1.7000000000000002
2624,-1.2000000000000002,-9.3,1.5
2640,-1.2000000000000002,-9.3,1.5
2656,-1.3,-9.1,1.5
2672,-1.3,-8.9,1.5
2688,-1.3,-8.9,1.5
2704,-1.3,-8.8,1.7000000000000002
2720,-1.7000000000000002,-8.6,1.7000000000000002
2736,-1.9000000000000001,-8.5,2.0
2752,-1.9000000000000001,-8.5,2.0
2768,-1.9000000000000001,-8.6,2.3000000000000003
2784,-1.7000000000000002,-9.200000000000001,2.2
2800,-1.7000000000000002,-9.3,2.1
2816,-1.7000000000000002,-9.3,2.1
2832,-2.1,-9.200000000000001,2.1
2848,-2.5,-9.3,2.3000000000000003
2864,-2.5,-9.3,2.3000000000000003
2880,-3.0,-9.5,2.7
2896,-3.0,-9.5,2.7
2912,-3.4000000000000004,-9.5,2.5
2928,-3.4000000000000004,-9.600000000000001,2.2
2944,-3.4000000000000004,-9.600000000000001,2.2
2960,-3.3000000000000003,-9.700000000000001,2.2
2976,-2.8000000000000003,-10.0,2.2
2992,-2.8000000000000003,-10.0,2.2
3008,-2.7,-9.8,2.2
3024,-2.2,-9.1,2.3000000000000003
3040,-2.0,-8.9,2.2
3056,-2.0,-8.9,2.2
3072,-1.9000000000000001,-9.0,2.2
3088,-1.6,-9.1,2.4000000000000004
3104,-1.6,-9.0,2.4000000000000004
3120,-1.6,-9.0,2.4000000000000004
3136,-1.8,-8.8,2.7
3152,-2.0,-8.700000000000001,2.8000000000000003
3168,-2.0,-8.700000000000001,2.8000000000000003
3184,-2.3000000000000003,-8.700000000000001,2.9000000000000004
3200,-2.7,-8.8,2.7
3216,-2.7,-8.8,2.7
3232,-2.5,-9.0,2.5
3248,-2.4000000000000004,-9.200000000000001,2.5
3264,-2.6,-9.3,2.5
3280,-2.6,-9.1,2.4000000000000004
3296,-2.6,-9.1,2.4000000000000004
3312,-2.6,-9.1,2.4000000000000004
3328,-2.3000000000000003,-9.0,2.2
3344,-2.1,-8.9,2.2
3360,-2.1,-8.9,2.2
3376,-2.1,-9.0,2.3000000000000003
3392,-2.1,-9.1,2.3000000000000003
3408,-2.1,-9.1,2.2
3424,-2.1,-9.1,2.2
3440,-2.0,-9.1,2.1
3456,-2.0,-9.1,2.1
3472,-2.0,-9.200000000000001,2.2
3488,-2.0,-9.200000000000001,2.2
3504,-2.0,-9.1,2.3000000000000003
3520,-2.1,-9.1,2.2
3536,-2.1,-9.1,2.2
3552,-2.1,-9.1,2.2
3568,-2.1,-9.1,2.2
3584,-2.1,-9.1,2.2
3600,-2.1,-9.1,2.2
3616,-2.0,-9.1,2.2
3632,-2.1,-9.1,2.3000000000000003
3648,-2.1,-9.1,2.3000000000000003
3664,-2.1,-9.1,2.3000000000000003
3680,-2.1,-9.1,2.2
3696,-2.1,-9.1,2.2
3712,-2.1,-9.1,2.2
3728,-2.1,-9.1,2.2
3744,-2.1,-9.1,2.2
3760,-2.1,-9.1,2.2
3776,-2.1,-9.200000000000001,2.3000000000000003
3792,-2.1,-9.200000000000001,2.3000000000000003
3808,-2.0,-9.1,2.2
3824,-2.0,-9.1,2.2
3840,-2.1,-9.200000000000001,2.2
3856,-2.1,-9.200000000000001,2.2
3872,-2.0,-9.1,2.2
3888,-2.0,-9.1,2.3000000000000003
3904,-2.1,-9.1,2.3000000000000003
3920,-2.1,-9.1,2.3000000000000003
3936,-2.1,-9.1,2.3000000000000003
3952,-2.1,-9.0,2.3000000000000003
3968,-2.1,-9.0,2.3000000000000003
3984,-2.1,-9.1,2.2
4000,-2.1,-9.1,2.2
4016,-2.1,-9.1,2.2
4032,-2.0,-9.1,2.2
4048,-2.1,-9.1,2.2
4064,-2.1,-9.1,2.2
4080,-2.1,-9.1,2.2
4096,-2.1,-9.1,2.2
4112,-2.1,-9.1,2.2
4128,-2.1,-9.1,2.2
4144,-2.1,-9.1,2.2
4160,-2.1,-9.1,2.2
4176,-2.0,-9.1,2.3000000000000003
4192,-2.0,-9.1,2.3000000000000003
4208,-2.0,-9.1,2.3000000000000003
4224,-2.0,-9.1,2.3000000000000003
4240,-2.0,-9.1,2.3000000000000003
4256,-2.0,-9.1,2.3000000000000003
4272,-2.0,-9.1,2.3000000000000003
4288,-2.0,-9.1,2.3000000000000003
4304,-2.0,-9.1,2.3000000000000003
4320,-2.0,-9.1,2.3000000000000003
4336,-2.1,-9.1,2.3000000000000003
4352,-2.1,-9.1,2.4000000000000004
4368,-2.2,-9.200000000000001,2.4000000000000004
4384,-2.2,-9.200000000000001,2.4000000000000004
4400,-2.2,-9.200000000000001,2.4000000000000004
4416,-2.2,-9.200000000000001,2.4000000000000004
4432,-2.1,-9.200000000000001,2.4000000000000004
4448,-2.1,-9.200000000000001,2.4000000000000004
4464,-2.0,-9.200000000000001,2.3000000000000003
4480,-1.9000000000000001,-9.200000000000001,2.2
4496,-1.9000000000000001,-9.200000000000001,2.2
4512,-1.9000000000000001,-9.200000000000001,2.2
4528,-1.9000000000000001,-9.1,2.2
4544,-1.9000000000000001,-9.1,2.4000000000000004
4560,-2.0,-9.1,2.5
4576,-2.0,-9.1,2.5
4592,-2.0,-9.1,2.2
4608,-2.1,-9.200000000000001,2.2
4624,-2.1,-9.200000000000001,2.2
4640,-2.2,-9.3,2.3000000000000003
4656,-2.2,-9.3,2.2
4672,-2.1,-9.200000000000001,2.2
4688,-2.1,-9.200000000000001,2.2
4704,-2.1,-9.1,2.2
4720,-2.0,-9.1,2.2
4736,-1.9000000000000001,-9.200000000000001,2.1
4752,-1.9000000000000001,-9.200000000000001,2.1
4768,-1.8,-9.3,2.1
4784,-1.7000000000000002,-9.200000000000001,2.1
4800,-1.7000000000000002,-9.200000000000001,2.0
4816,-1.7000000000000002,-9.200000000000001,2.0
4832,-1.7000000000000002,-9.200000000000001,2.2
4848,-1.8,-9.3,2.2
4864,-1.8,-9.3,2.2
4880,-1.8,-9.3,2.1
4896,-1.8,-9.3,2.1
4912,-1.8,-9.200000000000001,2.0
4928,-1.8,-9.200000000000001,2.0
4944,-1.8,-9.200000000000001,2.0
4960,-1.7000000000000002,-9.1,2.2
4976,-1.7000000000000002,-9.1,2.2
4992,-1.7000000000000002,-9.1,2.2
5008,-1.8,-9.1,2.2
5024,-1.9000000000000001,-9.1,2.2
5040,-1.9000000000000001,-9.1,2.1
5056,-1.9000000000000001,-9.1,2.1
5072,-1.7000000000000002,-9.200000000000001,2.0
5088,-1.7000000000000002,-9.200000000000001,2.0
5104,-1.7000000000000002,-9.200000000000001,2.0
5120,-1.7000000000000002,-9.200000000000001,2.0
5136,-1.6,-9.200000000000001,1.9000000000000001
5152,-1.6,-9.200000000000001,1.9000000000000001
5168,-1.6,-9.3,1.9000000000000001
5184,-1.6,-9.3,2.0
5200,-1.6,-9.3,2.1
5216,-1.6,-9.3,1.9000000000000001
5232,-1.6,-9.3,1.9000000000000001
5248,-1.5,-9.3,2.0
5264,-1.5,-9.4,2.0
5280,-1.5,-9.4,1.9000000000000001
5296,-1.5,-9.4,1.9000000000000001
5312,-1.5,-9.4,1.9000000000000001
5328,-1.5,-9.4,1.9000000000000001
5344,-1.5,-9.3,1.9000000000000001
5360,-1.5,-9.3,1.9000000000000001
5376,-1.6,-9.3,1.9000000000000001
5392,-1.4000000000000001,-9.4,1.9000000000000001
5408,-1.4000000000000001,-9.4,1.9000000000000001
5424,-1.4000000000000001,-9.4,1.9000000000000001
5440,-1.6,-9.4,1.8
5456,-1.6,-9.4,1.8
5472,-1.6,-9.4,1.8
5488,-1.6,-9.4,1.8
5504,-1.6,-9.4,1.9000000000000001
5520,-1.4000000000000001,-9.5,1.8
5536,-1.4000000000000001,-9.5,1.8
5552,-1.2000000000000002,-9.3,1.7000000000000002
5568,-1.2000000000000002,-9.3,1.7000000000000002
5584,-1.2000000000000002,-9.3,1.7000000000000002
5600,-1.1,-9.200000000000001,1.7000000000000002
5616,-0.9,-9.200000000000001,1.7000000000000002
5632,-0.9,-9.200000000000001,1.7000000000000002
5648,-0.9,-9.200000000000001,1.7000000000000002
5664,-0.9,-9.200000000000001,1.6
5680,-0.8,-9.1,1.6
5696,-0.8,-9.1,1.6
5712,-0.8,-9.1,1.6
5728,-0.8,-9.200000000000001,1.6
5744,-0.7000000000000001,-9.3,1.3
5760,-0.8,-9.4,1.3
5776,-1.0,-9.600000000000001,1.6
5792,-1.0,-9.600000000000001,1.6
5808,-1.1,-9.5,1.5
5824,-1.1,-9.5,1.5
5840,-1.1,-9.4,1.3
5856,-1.1,-9.3,1.2000000000000002
5872,-0.9,-9.5,1.4000000000000001
5888,-0.9,-9.5,1.4000000000000001
5904,-0.9,-9.5,1.5
5920,-0.7000000000000001,-9.5,1.3
5936,-0.7000000000000001,-9.5,1.3
5952,-0.7000000000000001,-9.5,1.3
5968,-0.7000000000000001,-9.600000000000001,1.3
5984,-0.7000000000000001,-9.5,1.1
6000,-0.7000000000000001,-9.4,1.1
6016,-0.7000000000000001,-9.4,1.1
6032,-0.7000000000000001,-9.600000000000001,1.3
6048,-0.6000000000000001,-9.600000000000001,1.3
6064,-0.5,-9.600000000000001,1.3
6080,-0.5,-9.600000000000001,1.3
6096,-0.5,-9.600000000000001,1.3
6112,-0.6000000000000001,-9.600000000000001,1.2000000000000002
6128,-0.6000000000000001,-9.600000000000001,1.2000000000000002
6144,-0.6000000000000001,-9.5,1.1
6160,-0.6000000000000001,-9.5,1.2000000000000002
6176,-0.7000000000000001,-9.5,1.2000000000000002
6192,-0.7000000000000001,-9.5,1.2000000000000002
6208,-0.7000000000000001,-9.5,1.2000000000000002
6224,-0.7000000000000001,-9.600000000000001,1.1
6240,-0.6000000000000001,-9.5,1.2000000000000002
6256,-0.6000000000000001,-9.5,1.2000000000000002
6272,-0.6000000000000001,-9.5,1.2000000000000002
6288,-0.6000000000000001,-9.600000000000001,1.2000000000000002
6304,-0.6000000000000001,-9.600000000000001,1.2000000000000002
6320,-0.6000000000000001,-9.5,1.2000000000000002
6336,-0.7000000000000001,-9.5,1.2000000000000002
6352,-0.7000000000000001,-9.5,1.2000000000000002
6368,-0.7000000000000001,-9.5,1.2000000000000002
6384,-0.8,-9.5,1.2000000000000002
6400,-0.8,-9.5,1.2000000000000002
6416,-0.8,-9.5,1.1
6432,-0.8,-9.5,1.1
6448,-0.8,-9.5,1.1
6464,-0.8,-9.600000000000001,1.1
6480,-0.8,-9.600000000000001,1.1
6496,-0.8,-9.600000000000001,1.1
6512,-0.8,-9.5,1.1
6528,-0.8,-9.5,1.1
6544,-0.8,-9.5,1.1
6560,-0.8,-9.5,1.1
6576,-0.8,-9.600000000000001,1.1
6592,-0.8,-9.5,1.1
6608,-0.8,-9.5,1.1
6624,-0.7000000000000001,-9.5,1.2000000000000002
6640,-0.8,-9.5,1.3
6656,-1.0,-9.4,1.1
6672,-1.0,-9.4,1.1
6688,-1.0,-9.5,1.1
6704,-1.1,-9.5,1.2000000000000002
6720,-1.1,-9.5,1.2000000000000002
6736,-1.1,-9.5,1.2000000000000002
6752,-1.1,-9.4,1.2000000000000002
6768,-1.2000000000000002,-9.4,1.2000000000000002
6784,-1.2000000000000002,-9.5,1.2000000000000002
6800,-1.1,-9.5,1.1
6816,-1.1,-9.5,1.1
6832,-1.0,-9.5,1.0
6848,-1.0,-9.5,1.0
6864,-1.0,-9.5,1.0
6880,-1.0,-9.5,1.0
6896,-1.0,-9.5,1.0
6912,-1.0,-9.5,1.0
6928,-1.0,-9.5,1.0
6944,-1.0,-9.5,1.0
6960,-0.9,-9.600000000000001,1.0
6976,-1.0,-9.5,1.0
6992,-1.0,-9.5,1.0
7008,-1.0,-9.5,1.0
7024,-1.0,-9.5,0.9
7040,-1.0,-9.5,0.9
7056,-1.0,-9.5,0.9
7072,-0.9,-9.600000000000001,0.8
7088,-1.0,-9.5,0.8
7104,-1.0,-9.5,0.8
7120,-1.0,-9.5,0.9
7136,-0.8,-9.600000000000001,0.8
7152,-0.8,-9.600000000000001,0.7000000000000001
7168,-0.8,-9.600000000000001,0.7000000000000001
7184,-0.8,-9.600000000000001,0.7000000000000001
7200,-0.8,-9.5,0.7000000000000001
7216,-0.8,-9.5,0.8
7232,-0.8,-9.5,0.8
7248,-0.7000000000000001,-9.5,0.8
7264,-0.7000000000000001,-9.5,0.8
7280,-0.7000000000000001,-9.5,0.8
7296,-0.7000000000000001,-9.5,0.8
7312,-0.8,-9.600000000000001,0.8
7328,-0.8,-9.600000000000001,0.8
7344,-0.8,-9.600000000000001,0.8
7360,-0.9,-9.600000000000001,0.8
7376,-0.8,-9.600000000000001,0.8
7392,-0.8,-9.600000000000001,0.8
7408,-0.8,-9.600000000000001,0.8
7424,-0.8,-9.600000000000001,0.8
7440,-0.8,-9.5,0.8
7456,-0.8,-9.600000000000001,0.9
7472,-0.8,-9.600000000000001,0.9
7488,-0.8,-9.600000000000001,0.8
7504,-0.8,-9.5,0.8
7520,-0.8,-9.5,0.8
7536,-0.7000000000000001,-9.5,0.9
7552,-0.4,-9.600000000000001,1.0
7568,-0.7000000000000001,-9.600000000000001,0.9
7584,-0.7000000000000001,-9.600000000000001,0.9
7600,-1.0,-9.5,0.7000000000000001
7616,-1.2000000000000002,-9.5,0.7000000000000001
7632,-1.1,-9.5,0.8
7648,-1.1,-9.5,0.8
7664,-1.1,-9.600000000000001,0.7000000000000001
7680,-1.1,-9.600000000000001,0.7000000000000001
7696,-1.1,-9.600000000000001,0.7000000000000001
7712,-1.1,-9.5,0.7000000000000001
7728,-1.1,-9.5,0.8
7744,-1.0,-9.600000000000001,0.7000000000000001
7760,-0.9,-9.5,0.7000000000000001
7776,-0.9,-9.5,0.7000000000000001
7792,-0.9,-9.5,0.8
7808,-0.9,-9.600000000000001,0.8
7824,-0.9,-9.600000000000001,0.8
7840,-0.9,-9.5,0.8
7856,-0.9,-9.5,0.8
7872,-0.9,-9.600000000000001,0.8
7888,-0.9,-9.600000000000001,0.8
7904,-0.9,-9.600000000000001,0.8
7920,-0.9,-9.5,0.7000000000000001
7936,-0.9,-9.5,0.7000000000000001
7952,-0.9,-9.5,0.7000000000000001
7968,-0.9,-9.600000000000001,0.7000000000000001
7984,-1.0,-9.600000000000001,0.8
8000,-1.0,-9.600000000000001,0.8
8016,-1.0,-9.600000000000001,0.8
8032,-1.0,-9.5,0.8
8048,-0.9,-9.5,0.8
8064,-0.9,-9.5,0.8
8080,-0.9,-9.5,0.9
8096,-0.9,-9.5,0.9
8112,-1.0,-9.5,0.9
8128,-1.0,-9.5,0.9
8144,-1.0,-9.5,0.9
8160,-1.0,-9.5,0.9
8176,-1.1,-9.5,0.9
8192,-1.1,-9.5,0.9
8208,-1.1,-9.5,0.9
8224,-1.0,-9.5,0.9
8240,-1.0,-9.5,0.9
8256,-1.0,-9.5,0.9
8272,-1.0,-9.5,1.0
8288,-1.0,-9.5,1.0
8304,-1.0,-9.5,1.0
8320,-1.1,-9.5,1.0
8336,-1.1,-9.5,1.0
8352,-1.1,-9.5,1.0
8368,-1.1,-9.5,1.0
8384,-1.1,-9.5,1.0
8400,-1.2000000000000002,-9.5,1.1
8416,-1.2000000000000002,-9.5,1.0
8432,-1.2000000000000002,-9.5,1.0
8448,-1.2000000000000002,-9.600000000000001,1.0
8464,-1.1,-9.600000000000001,1.0
8480,-1.1,-9.600000000000001,1.0
8496,-1.1,-9.600000000000001,1.0
8512,-1.1,-9.5,1.0
8528,-1.2000000000000002,-9.5,1.1
8544,-1.2000000000000002,-9.5,1.1
8560,-1.2000000000000002,-9.5,1.1
8576,-1.2000000000000002,-9.5,1.1
8592,-1.2000000000000002,-9.5,1.2000000000000002
8608,-1.2000000000000002,-9.5,1.1
8624,-1.2000000000000002,-9.5,1.1
8640,-1.3,-9.5,1.1
8656,-1.3,-9.5,1.2000000000000002
8672,-1.3,-9.5,1.2000000000000002
8688,-1.3,-9.5,1.2000000000000002
8704,-1.4000000000000001,-9.5,1.2000000000000002
8720,-1.3,-9.5,1.2000000000000002
8736,-1.3,-9.5,1.2000000000000002
8752,-1.3,-9.4,1.2000000000000002
8768,-1.3,-9.4,1.2000000000000002
8784,-1.3,-9.4,1.2000000000000002
8800,-1.3,-9.4,1.2000000000000002
8816,-1.3,-9.4,1.3
8832,-1.4000000000000001,-9.5,1.3
8848,-1.4000000000000001,-9.5,1.3
8864,-1.3,-9.5,1.3
8880,-1.3,-9.5,1.3
8896,-1.3,-9.5,1.3
8912,-1.3,-9.5,1.3
8928,-1.3,-9.4,1.3
8944,-1.3,-9.4,1.3
8960,-1.4000000000000001,-9.5,1.3
8976,-1.4000000000000001,-9.4,1.3
8992,-1.4000000000000001,-9.4,1.3
9008,-1.4000000000000001,-9.4,1.4000000000000001
9024,-1.4000000000000001,-9.4,1.4000000000000001
9040,-1.4000000000000001,-9.4,1.4000000000000001
9056,-1.3,-9.4,1.4000000000000001
9072,-1.3,-9.4,1.4000000000000001
9088,-1.3,-9.4,1.4000000000000001
9104,-1.4000000000000001,-9.4,1.4000000000000001
9120,-1.4000000000000001,-9.4,1.4000000000000001
9136,-1.4000000000000001,-9.4,1.4000000000000001
9152,-1.4000000000000001,-9.4,1.4000000000000001
9168,-1.4000000000000001,-9.4,1.4000000000000001
9184,-1.4000000000000001,-9.4,1.4000000000000001
9200,-1.4000000000000001,-9.4,1.4000000000000001
9216,-1.4000000000000001,-9.4,1.4000000000000001
9232,-1.4000000000000001,-9.3,1.5
9248,-1.4000000000000001,-9.4,1.4000000000000001
9264,-1.4000000000000001,-9.4,1.4000000000000001
9280,-1.4000000000000001,-9.4,1.4000000000000001
9296,-1.5,-9.4,1.5
9312,-1.5,-9.4,1.5
9328,-1.5,-9.3,1.5
9344,-1.5,-9.3,1.5
9360,-1.6,-9.3,1.4000000000000001
9376,-1.6,-9.4,1.5
9392,-1.6,-9.4,1.5
9408,-1.6,-9.4,1.5
9424,-1.7000000000000002,-9.3,1.5
9440,-1.7000000000000002,-9.4,1.6
9456,-1.7000000000000002,-9.4,1.6
9472,-1.8,-9.4,1.6
9488,-1.7000000000000002,-9.3,1.6
9504,-1.6,-9.4,1.5
9520,-1.6,-9.4,1.5
9536,-1.6,-9.4,1.5
9552,-1.6,-9.4,1.6
9568,-1.6,-9.4,1.6
9584,-1.7000000000000002,-9.3,1.6
9600,-1.7000000000000002,-9.4,1.6
9616,-1.6,-9.4,1.6
9632,-1.6,-9.4,1.6
9648,-1.7000000000000002,-9.4,1.7000000000000002
9664,-1.8,-9.3,1.6
9680,-1.8,-9.3,1.7000000000000002
9696,-1.8,-9.3,1.7000000000000002
9712,-1.8,-9.3,1.7000000000000002
9728,-1.8,-9.3,1.7000000000000002
9744,-1.8,-9.3,1.7000000000000002
9760,-1.8,-9.3,1.7000000000000002
9776,-1.8,-9.3,1.7000000000000002
9792,-1.8,-9.3,1.7000000000000002
9808,-1.8,-9.3,1.7000000000000002
9824,-1.8,-9.3,1.7000000000000002
9840,-1.8,-9.3,1.7000000000000002
9856,-1.8,-9.3,1.8
9872,-1.8,-9.3,1.9000000000000001
9888,-1.8,-9.3,1.9000000000000001
9904,-1.8,-9.200000000000001,1.8
9920,-1.8,-9.3,1.8
9936,-1.8,-9.3,1.8
9952,-1.9000000000000001,-9.3,1.9000000000000001
9968,-1.9000000000000001,-9.200000000000001,1.9000000000000001
9984,-1.9000000000000001,-9.200000000000001,1.9000000000000001
